timestamp,acc_x,acc_y,acc_z,gyr_x,gyr_y,gyr_z,activity
1761226638981297000,-0.7019342902112752,-0.0079968439728021,-0.3581681259930133,0.0295507200062274,0.3601701259613037,0.1251585930585861,jumping
1761226638991309800,-0.7630872625712305,-0.0367559054672718,-0.237431914807856,0.0360797233879566,0.3895365595817566,0.0734253525733947,jumping
1761226639001323000,-0.6165189832542092,-0.1207967092007398,-0.0651154462501406,0.0522395186126232,0.3572328686714172,0.0354301556944847,jumping
1761226639011336200,-0.3619008827805519,-0.1530067879319191,0.1194581540733575,0.0647878050804138,0.2930245995521545,0.0209540110081434,jumping
1761226639021348900,-0.1088427981652319,-0.0924596725106239,0.2838791932061314,0.0749668404459953,0.2259429693222046,0.0290288142859935,jumping
1761226639031362000,0.0556755638621747,-0.0475496866822242,0.241988262937963,0.0996218547224998,0.18074831366539,0.0527463927865028,jumping
1761226639041375000,0.0764731449581682,0.0401473014712333,0.0739952105373144,0.1309366375207901,0.1549828201532364,0.0808460861444473,jumping
1761226639051388000,-0.0478302571892738,0.1019260045140981,0.0842249281287193,0.1432929039001464,0.1216240674257278,0.097394973039627,jumping
1761226639061400800,-0.1346177292823791,0.1160147356212139,0.1985392895728349,0.139501541852951,0.0760097727179527,0.1102511510252952,jumping
1761226639071414000,-0.18273323315382,0.1072971761584281,0.3270271377980709,0.124045081436634,0.0323730818927288,0.1236276775598526,jumping
1761226639081427000,-0.1648770392719656,0.0932797567218542,0.4098392765194177,0.1020044162869453,0.0065709576010704,0.1466575711965561,jumping
1761226639091439900,-0.1891495299369096,0.0584960281103849,0.4594008875459432,0.0819316357374191,-0.0115920668467879,0.1563906371593475,jumping
1761226639101453000,-0.2737209334157407,-0.019136662146449,0.4918284084200859,0.058251604437828,-0.027692899107933,0.1578951179981231,jumping
1761226639111466000,-0.4397914933212101,-0.0313385565936565,0.6241185715377331,-0.0007912095170468,-0.0338642410933971,0.1381743997335434,jumping
1761226639121479000,-0.6600150836966932,-0.1418833363711834,0.843038678099215,-0.0681722089648246,-0.0210077613592147,0.1035810485482215,jumping
1761226639131491800,-0.8119839799482375,-0.2560311090767383,0.9978139370083808,-0.1415539979934692,-0.0154076665639877,0.0701519921422004,jumping
1761226639141505000,-0.8262820429570973,-0.2195066742777824,1.1137453782603144,-0.1958004683256149,-0.0385097339749336,0.0561859831213951,jumping
1761226639151519000,-0.7790829232782125,-0.1116045179635286,1.0288891664907336,-0.2005094736814499,-0.0365286096930503,0.0511233136057853,jumping
1761226639161532000,-0.8052845553748309,-0.0593827478170394,0.7858882193788885,-0.1865324974060058,-0.0150172300636768,0.0316854156553745,jumping
1761226639171545000,-0.8799607339136302,-0.0141582892119884,0.7695850270926952,-0.1806381195783615,-0.0350481979548931,0.0175179317593574,jumping
1761226639181558000,-0.8821621164154261,0.0422089101761579,1.0164186842352152,-0.2057160288095474,-0.0963800475001335,-0.0190671253949403,jumping
1761226639191571000,-0.8182030005935579,-0.128422381773591,1.097998066291213,-0.2338339537382125,-0.152106687426567,-0.0712895840406417,jumping
1761226639201583900,-0.7655212117198854,-0.2994698533087969,0.9368144016444684,-0.255478173494339,-0.1651517897844314,-0.1119545251131057,jumping
1761226639211597000,-0.735717682673782,-0.1814583909124136,0.7828793929517268,-0.273077130317688,-0.1472865045070648,-0.1383187472820282,jumping
1761226639221610000,-0.8078861161753534,0.0051630818516016,0.7379349203318357,-0.3049122095108032,-0.1196602657437324,-0.1484664976596832,jumping
1761226639231623000,-0.8262383499458432,0.1994926447749137,0.8189794648587703,-0.3408949673175812,-0.0899633541703224,-0.1493988782167434,jumping
1761226639241636000,-0.7640472667098045,0.2998398556649684,0.8787450745135545,-0.3757742345333099,-0.0868798792362213,-0.1523038148880005,jumping
1761226639251649000,-0.7062719540894031,0.2791945425212383,0.8880898259639739,-0.3906964361667633,-0.0971650034189224,-0.1423529088497162,jumping
1761226639261662000,-0.6977041052956133,0.2649006442308426,0.8647598037809133,-0.3956559002399444,-0.1034303456544876,-0.1225692257285118,jumping
1761226639271675100,-0.6676183983072638,0.3050543754428625,0.8116536520153284,-0.3906211853027344,-0.0676140263676643,-0.1102329269051551,jumping
1761226639281688000,-0.6353398574497551,0.2301607547610998,0.7369353879004716,-0.3834021687507629,0.0088781397789716,-0.0948411598801612,jumping
1761226639291701000,-0.6080564945310354,0.154288059914112,0.7282336105287075,-0.3926411867141723,0.0830232053995132,-0.0687698796391487,jumping
1761226639301714000,-0.610399185199663,0.0358346989691257,0.8998515754282475,-0.4396184384822845,0.1581332236528396,-0.0471287183463573,jumping
1761226639311727000,-0.6653506725709885,-0.0804945094287395,1.0349883601486682,-0.5009793043136597,0.2149320691823959,-0.032687459141016,jumping
1761226639321740000,-0.6040142334029078,-0.2326087324351072,1.1006821908086537,-0.5524216294288635,0.210308164358139,-0.0440271161496639,jumping
1761226639331753000,-0.5399729922555386,-0.3903583309799432,1.165035712775588,-0.5965523719787598,0.1303717941045761,-0.0648439899086952,jumping
1761226639341766100,-0.456272672522813,-0.4519774595469236,1.2278875980079174,-0.6211565136909485,0.0320957042276859,-0.0791870355606079,jumping
1761226639351779000,-0.3670416066698729,-0.4440419903725385,1.1730828256309032,-0.6435398459434509,-0.0606443509459495,-0.092455968260765,jumping
1761226639361792000,-0.3074268767278641,-0.3926829745352268,1.1272639082640408,-0.676838755607605,-0.1206563264131546,-0.0790235325694084,jumping
1761226639371805000,-0.1879420538432896,-0.3474965098530054,0.997968250787258,-0.7043784856796265,-0.1252846270799636,-0.038926713168621,jumping
1761226639381818000,-0.0674409665882587,-0.3528384554028511,0.7477870367825031,-0.7211383581161499,-0.0843383520841598,0.0161908194422721,jumping
1761226639391831000,-0.0247747410986572,-0.4239946431219578,0.4761082767188548,-0.7054446339607239,-0.0505108833312988,0.0527349822223186,jumping
1761226639401844000,-0.0395083459805697,-0.5836082819730043,0.323707053464651,-0.6736668348312378,-0.0752709656953811,0.0747454240918159,jumping
1761226639411857200,-0.0324544819463044,-0.5964022970944642,0.3293430135250091,-0.6428591012954712,-0.1494575887918472,0.101843886077404,jumping
1761226639421870000,-0.0135997785463929,-0.5687099880486727,0.3330833690971136,-0.5948075652122498,-0.2113073915243148,0.1528075933456421,jumping
1761226639431884000,0.0035465865656733,-0.5648398686170578,0.0701578243315219,-0.5256631374359131,-0.2571654319763183,0.2035602480173111,jumping
1761226639441897000,-0.0599507569633424,-0.5767775591701269,-0.2260118183881044,-0.4360557496547699,-0.2777724266052246,0.225924402475357,jumping
1761226639451910100,-0.285796644200012,-0.6657078885108232,-0.6282827054798603,-0.3280030488967895,-0.222427412867546,0.2136187404394149,jumping
1761226639461923000,-0.6260881911102681,-0.7108920151054858,-1.1338970626682043,-0.2103535681962967,-0.0758452862501144,0.1793616265058517,jumping
1761226639471936000,-0.925461379111558,-0.7636316716462374,-1.5574614976793526,-0.0918253287672996,0.1422234028577804,0.1421639174222946,jumping
1761226639481949200,-1.0523663420595228,-0.7167150221705436,-1.8705922120720144,0.0348813906311988,0.3915420472621918,0.1145174801349639,jumping
1761226639491961900,-0.942685266439244,-0.6250602363020181,-1.9171172318816183,0.168531060218811,0.629681408405304,0.0988016352057457,jumping
1761226639501975000,-0.6162817404322326,-0.6587059007942676,-1.7722639397889377,0.3044786155223846,0.8244357109069824,0.1061668619513511,jumping
1761226639511988000,-0.1879631696965545,-0.8384557342231274,-1.401803902977705,0.415368378162384,0.9189723134040833,0.1356144994497299,jumping
1761226639522001200,0.1272531187985092,-1.0046259551107883,-0.654753363776207,0.4735503494739532,0.8612194657325745,0.1563643366098404,jumping
1761226639532013800,0.1928334060814231,-1.1073112535595893,0.3224719587117433,0.4684730470180511,0.6308866739273071,0.1522106081247329,jumping
1761226639542027000,0.1775382948592305,-1.1378589520365,1.3032476671576498,0.394850492477417,0.2678166031837463,0.1278757154941558,jumping
1761226639552040200,0.1182236438423395,-1.1153531057178974,1.8831500803500412,0.2732537388801574,-0.1049830764532089,0.0840672478079795,jumping
1761226639562052900,0.0025211890406906,-0.9939373878359794,1.9592869790911676,0.1324430108070373,-0.3641931116580963,0.0425457693636417,jumping
1761226639572066000,-0.1686452326990664,-0.6481167022407055,1.4858628268897534,0.0282502975314855,-0.4504283964633941,0.0430874563753604,jumping
1761226639582079000,-0.3158861505806445,-0.0343891763359308,0.6623083092004061,-0.0365308299660682,-0.3703675866127014,0.0686594173312187,jumping
1761226639592092200,-0.4457290666766464,0.5364046322494745,-0.0524760371685028,-0.0471331402659416,-0.1918021142482757,0.1118638813495636,jumping
1761226639602104800,-0.4684693793382495,0.8594809865951537,-0.5140764805853366,-0.0294885449111461,0.0376625433564186,0.1563028693199157,jumping
1761226639612118000,-0.4245362757179886,0.9433581241995096,-0.7538572966068983,0.0152879804372787,0.2692329287528991,0.1945117712020874,jumping
1761226639622131200,-0.2568949593644589,0.9294418270498512,-0.8494593587964773,0.0720451772212982,0.4658644497394562,0.2337951064109802,jumping
1761226639632144000,-0.0561236729558557,0.8433680561840534,-0.7721873185455799,0.1401648372411728,0.6206526756286621,0.2741968929767608,jumping
1761226639642157000,0.0584905482176691,0.7029337495774031,-0.560727172601223,0.1852876842021942,0.6960333585739136,0.2899548709392547,jumping
1761226639652170000,0.0769352095119655,0.5786000984221696,-0.1116390047550201,0.2096137702465057,0.6877186894416809,0.2979227602481842,jumping
1761226639662183200,0.119593836217001,0.5068810161232948,0.3876169233173132,0.211916983127594,0.6009225249290466,0.2961401641368866,jumping
1761226639672195800,0.1988999395787715,0.4484299961984157,0.7934241678416728,0.1967137902975082,0.4742154479026794,0.2851317226886749,jumping
1761226639682209000,0.2941192860610783,0.3176549138188362,1.037193176716566,0.1718105673789978,0.3237519264221191,0.2755922973155975,jumping
1761226639692222200,0.4693387095186859,0.1583767905324697,1.219997137019038,0.130523145198822,0.1534570753574371,0.2716550529003143,jumping
1761226639702235000,0.5607296568192541,0.0853279209345579,1.3214146074891089,0.0799109190702438,1.24229118227e-05,0.2709442377090454,jumping
1761226639712248000,0.5311558448757976,0.0698731621712446,1.2358926252871751,0.0197375901043415,-0.100975178182125,0.2638964653015136,jumping
1761226639722261000,0.4055877565547823,0.1119873798012733,1.0249784227877854,-0.0404667146503925,-0.1348489671945572,0.251204252243042,jumping
1761226639732274200,0.2615586403265595,0.1735615001827478,0.7013508643001317,-0.0983393341302871,-0.1191275268793106,0.239388883113861,jumping
1761226639742286800,0.2056543092098087,0.2388712999612093,0.452577179005742,-0.1514658480882644,-0.0656373724341392,0.2442823201417923,jumping
1761226639752301000,0.2705141001984477,0.2687596577465534,0.2640910814136266,-0.1918846368789672,-0.0096739716827869,0.2698547840118408,jumping
1761226639762314000,0.3955095762632787,0.2669254280567169,0.1656786379784345,-0.2198143750429153,0.0174202471971511,0.2937529385089874,jumping
1761226639772327000,0.4991980604052543,0.2880921347260475,0.1198737491369247,-0.2235260158777237,0.0061002154834568,0.297972708940506,jumping
1761226639782340000,0.5353101150110363,0.2658522458672523,0.0407177948355674,-0.2167652249336242,0.0014133541844785,0.2883555293083191,jumping
1761226639792353000,0.4673041349511593,0.2389490413725375,-0.0457698175281286,-0.2126748710870742,0.0595011562108993,0.2924866080284118,jumping
1761226639802366000,0.406046496640332,0.1963970168471336,-0.1350707337468862,-0.2156195342540741,0.1440743654966354,0.3034380674362182,jumping
1761226639812379100,0.3935984819449484,0.1999205147981643,-0.1018377417087554,-0.2262016087770462,0.1943971961736679,0.3053352832794189,jumping
1761226639822392000,0.3525991302216425,0.1059872626036405,0.0614729980945587,-0.240763247013092,0.2092875093221664,0.2853006422519684,jumping
1761226639832405000,0.2884304998349398,-0.0819470463246107,0.1958323687016963,-0.2617835700511932,0.2146372646093368,0.2419832646846771,jumping
1761226639842418000,0.3105466527162119,-0.2304290503084659,0.269364637902379,-0.2817086279392242,0.1790820658206939,0.1853453516960144,jumping
1761226639852431000,0.4094523595610633,-0.3411275593429804,0.3796855457961559,-0.2971288561820984,0.1318234801292419,0.1383695900440216,jumping
1761226639862444000,0.4586605540400371,-0.362609323310852,0.4925035312026738,-0.3308580815792084,0.072426289319992,0.0919901356101036,jumping
1761226639872457000,0.4522512715196237,-0.328000366744399,0.6647276453018188,-0.3666352331638336,-0.0043989839032292,0.0482730120420455,jumping
1761226639882470000,0.4450008254673331,-0.2719984935373067,0.7029904482007027,-0.3978329002857208,-0.0602278709411621,0.0135809704661369,jumping
1761226639892483000,0.439808444456011,-0.1507481953501701,0.5560112499952315,-0.4270121157169342,-0.0847585126757621,-0.007426843047142,jumping
1761226639902496000,0.4407950808731838,0.008511807757616,0.4040075016260147,-0.4642701745033264,-0.0991848707199096,-0.0124567653983831,jumping
1761226639912509000,0.4214589140992611,0.19190905777812,0.2661608734250068,-0.4839852750301361,-0.1013763844966888,-0.0106815015897154,jumping
1761226639922522000,0.3821432411465794,0.320271818318963,0.0742120681583881,-0.5030308961868286,-0.0765075832605362,-0.0177540872246027,jumping
1761226639932535000,0.2967222716337069,0.3508499119341373,-0.0952688847124576,-0.512562096118927,-0.0146772339940071,-0.0225738771259784,jumping
1761226639942548000,0.1899331545952707,0.4297556908667087,-0.2739361836016178,-0.5157501697540283,0.0809321105480194,-0.0185525026172399,jumping
1761226639952561000,0.1432475739290937,0.5032207400500774,-0.403107922437787,-0.5024188756942749,0.1831319779157638,-0.0089094638824462,jumping
1761226639962574000,0.1986801593482494,0.5967343055278063,-0.4852338324606418,-0.4619889259338379,0.2543506026268005,0.0105195390060544,jumping
1761226639972587000,0.254515443816781,0.6274082607328891,-0.5135264454871415,-0.3978427052497864,0.2891173958778381,0.0311041753739118,jumping
1761226639982600000,0.2966107375506311,0.5885790561228991,-0.4329302292495965,-0.318184345960617,0.3096978366374969,0.0443695597350597,jumping
1761226639992613000,0.2754010685224086,0.5634194804251194,-0.3115069125831127,-0.236502543091774,0.3003618717193603,0.0429375767707824,jumping
1761226640002626000,0.2484287077816203,0.5240396561950444,-0.0207177938580513,-0.1712116748094558,0.2346551567316055,0.0221081376075744,jumping
1761226640012639000,0.2878480968371033,0.4006272115379571,0.2658955004870891,-0.119562067091465,0.1562447696924209,-0.0101712401956319,jumping
1761226640022652000,0.3298234174530953,0.2697299640834331,0.4327542881608009,-0.0921135768294334,0.1170197874307632,-0.0360098034143447,jumping
1761226640032665000,0.3048487698681652,0.2265449023514986,0.5538175393432379,-0.0804452002048492,0.1085376217961311,-0.0563467666506767,jumping
1761226640042678000,0.3232449889108538,0.263974761557579,0.7216711832731961,-0.09668480604887,0.1031738370656967,-0.0708046332001686,jumping
1761226640052691000,0.3323446064937859,0.2427946108847856,0.915814868235588,-0.1392154991626739,0.0920103937387466,-0.0857798531651496,jumping
1761226640062704000,0.419725660565868,0.1982569655001163,1.0797767654240131,-0.1927264630794525,0.0837491303682327,-0.1061036959290504,jumping
1761226640072717000,0.5465534666243941,0.2102127762317657,1.1412480099529028,-0.2494576573371887,0.0759524628520011,-0.1149549782276153,jumping
1761226640082730000,0.674407473925501,0.2705494637727737,1.1810066043674945,-0.3169632852077484,0.0635217502713203,-0.1128917634487152,jumping
1761226640092744200,0.7549757792428136,0.3391781788408756,1.1913012038886546,-0.3944002687931061,0.0594005063176155,-0.0892796441912651,jumping
1761226640102756900,0.7604384285628795,0.3891045315265655,1.1463210754334925,-0.4747421145439148,0.0626161843538284,-0.0573981888592243,jumping
1761226640112770000,0.7033167575456202,0.4136088581860065,1.0811842941343783,-0.5467390418052673,0.0466798283159732,-0.0400522202253341,jumping
1761226640122783000,0.5338972525384277,0.4594184232026338,0.9520096326887608,-0.5940241813659668,-0.0063065993599593,-0.0392196699976921,jumping
1761226640132796200,0.2895022207196802,0.5129115284591913,0.7663222259044646,-0.6189476251602173,-0.0857446938753128,-0.0561328716576099,jumping
1761226640142808800,0.0175293000150471,0.6328115810811519,0.5855132388114929,-0.6328378319740295,-0.1666271984577179,-0.0719930157065391,jumping
1761226640152822000,-0.2090429287347942,0.8209796987652778,0.3695914372831583,-0.6048754453659058,-0.2411182224750518,-0.0739714726805687,jumping
1761226640162835200,-0.4550946417193859,1.1160498558104035,0.0433726932585239,-0.5475596785545349,-0.279384583234787,-0.0784086883068084,jumping
1761226640172847900,-0.8162053970355541,1.480177182468772,-0.3111123603075743,-0.4639244377613067,-0.2646040320396423,-0.0956734269857406,jumping
1761226640182861000,-1.13872126795426,1.8077829969376324,-0.6272755742639303,-0.3406928777694702,-0.2091228812932968,-0.1152217909693718,jumping
1761226640192874000,-1.2912122153185308,2.1973925553768874,-0.910298150640726,-0.1831082850694656,-0.0909688100218772,-0.1192338466644287,jumping
1761226640202887200,-1.3028659743636846,2.532185651001334,-1.1514520085811617,0.0097385738044977,0.0933621600270271,-0.110825315117836,jumping
1761226640212899800,-1.1699040494643151,2.6614889072626826,-1.2373638668835163,0.2096578031778335,0.301030158996582,-0.1009343340992927,jumping
1761226640222912500,-0.9292924817070364,2.5848727005720136,-1.008746249911189,0.3774384558200836,0.4476091563701629,-0.0654334723949432,jumping
1761226640232925700,-0.6386570191737264,2.4462451511263845,-0.4890028296053409,0.5054177641868591,0.5303945541381836,-0.0067291436716914,jumping
1761226640242938600,-0.3484565870568156,2.3463334090441466,0.0629331337749958,0.6183392405509949,0.5274653434753418,0.0625399425625801,jumping
1761226640252951600,-0.0865986715227365,2.20402746334672,0.5412491496711969,0.7266795635223389,0.4429137110710144,0.1331733763217926,jumping
1761226640262964500,0.1330593939244747,1.9454419936120508,0.8931406796127557,0.7975413799285889,0.2830440700054168,0.1953189671039581,jumping
1761226640272977700,0.4378770380020141,1.59353585062325,1.2657809830725193,0.7872554659843445,0.0188606418669223,0.2660309672355652,jumping
1761226640282990600,0.807993375942111,1.0885673901230095,1.628437068134546,0.6846356391906738,-0.362236738204956,0.360944002866745,jumping
1761226640293003500,1.1901218579109758,0.2567471483916044,1.6329460699915883,0.5514285564422607,-0.7528796195983887,0.4745746850967407,jumping
1761226640303016700,1.2149975751660764,-0.5809791025131941,1.1535925277411938,0.445462703704834,-1.0200514793395996,0.5621969103813171,jumping
1761226640313029600,0.8459658906575291,-0.944002267321944,0.2597194422006607,0.3849524855613708,-1.167203426361084,0.6115846633911133,jumping
1761226640323042600,0.2262186660718172,-0.8686457053035497,-0.853441706430912,0.4060029983520508,-1.1828616857528689,0.6332539319992065,jumping
1761226640333055500,-0.3539113453313708,-0.9485667987585068,-2.651797534331679,0.5610301494598389,-0.9179909825325012,0.6431968808174133,jumping
1761226640343068700,-0.9377603041924536,-1.1064730491697787,-5.030010182717442,0.8680500388145447,-0.3364904522895813,0.6090242862701416,jumping
1761226640353081600,-1.6482396468438207,-1.3090356029093264,-7.135180381470918,1.2841957807540894,0.4848886132240295,0.5369789004325867,jumping
1761226640363094500,-2.254808971557021,-1.3143074058324098,-8.579111946082115,1.7215778827667236,1.326557993888855,0.4266371726989746,jumping
1761226640373107700,-2.495187753471732,-1.2587246348202228,-8.632751181811093,2.073175430297852,1.7814512252807615,0.2918812036514282,jumping
1761226640383120600,-1.86995712903887,-1.130033372977376,-6.96109631871879,2.265387773513794,1.5278679132461548,0.203357458114624,jumping
1761226640393133600,0.0111084366546943,-0.1132435173422098,-3.7844694391191,2.205149412155152,0.5424718856811523,0.1850359737873077,jumping
1761226640403146500,2.606187291279435,0.6658505118519067,-0.911980404639244,2.144484043121338,-0.364718496799469,0.3575086593627929,jumping
1761226640413159700,4.030889254763722,-1.4806670118123293,-2.201301837775111,2.1726412773132324,-0.5961024165153503,0.5591365694999695,jumping
1761226640423172600,3.1850898797795173,-1.971835495018959,-3.753002287709713,2.016881227493286,-0.3290178477764129,0.4689902663230896,jumping
1761226640433185500,1.4026681185916066,-1.7917191663652658,-3.568701951369643,1.7120198011398315,-0.1137276515364646,0.537710428237915,jumping
1761226640443198700,2.147990080434829,-3.303915873429179,-3.337235666967928,1.4619821310043335,0.1748653501272201,0.7434781789779663,jumping
1761226640453212400,2.468128481632471,-4.406245246922969,-3.8295889760449526,1.3372585773468018,0.6674169301986694,0.8994007110595703,jumping
1761226640463225600,2.416450170712918,-4.493420841550827,-3.918261238971352,1.2771693468093872,1.2255035638809204,0.8689477443695068,jumping
1761226640473238800,1.5991779481634496,-3.611774200376868,-2.8361726894736288,1.1088460683822632,2.1772847175598145,0.7311877608299255,jumping
1761226640483251500,1.146529530552402,-2.5425989084661005,-1.1823562654107809,0.7024608850479126,2.941382884979248,0.5579630136489868,jumping
1761226640493264600,1.863055386826396,-1.7676953166991471,0.6062403850197792,0.2830913066864013,3.272351026535034,0.5871909260749817,jumping
1761226640503277600,3.099483141903579,-1.3122820374846458,2.6298350011095404,-0.2372243404388427,2.8541066646575928,0.7866618633270264,jumping
1761226640513290800,3.159598880170285,-0.13002806340456,4.920309452548623,-0.795798122882843,2.249284267425537,1.0361433029174805,jumping
1761226640523303400,3.1562846410557626,1.323925129005313,5.847868534591794,-1.2966132164001465,1.5457247495651243,1.3707913160324097,jumping
1761226640533316600,2.724247853514552,2.2953648538291453,6.024635552817583,-1.6891512870788574,0.8922374248504639,1.6671910285949707,jumping
1761226640543329500,1.7738031320549548,2.2748118951439857,5.792243678003549,-1.938870191574097,0.420800507068634,1.8437336683273315,jumping
1761226640553342500,0.1589067326907068,1.9447189400345088,5.269926607817411,-2.027177095413208,-0.1165617406368255,1.820462942123413,jumping
1761226640563355600,-1.8287284620717168,1.8401538191884756,4.893665191251039,-1.990902543067932,-0.7634229063987732,1.5893197059631348,jumping
1761226640573368600,-3.2998414635971187,1.7559779908984898,4.587953813204169,-1.9109073877334597,-1.3501492738723757,1.210018754005432,jumping
1761226640583381800,-4.167926027886569,1.916066846045852,4.142151242899894,-1.808298230171204,-1.8177534341812132,0.790543258190155,jumping
1761226640593394400,-4.1958910163939,2.1777520353615283,3.4196675742000338,-1.689425349235535,-2.1466121673583984,0.439829409122467,jumping
1761226640603407600,-4.02276147788763,2.301598195260763,2.600652453505993,-1.5782314538955688,-2.0890355110168457,0.0969192460179328,jumping
1761226640613420500,-4.005182274316251,2.543368723794818,1.6508990753114223,-1.447750687599182,-1.5887938737869265,-0.2187236547470092,jumping
1761226640623433500,-3.7058120819896456,2.970993832373619,0.685854019960761,-1.3297027349472046,-1.013847827911377,-0.5210927128791809,jumping
1761226640633446700,-3.5323134179100397,3.815173204940557,0.6373539006859064,-1.2575279474258425,-0.6130484938621521,-0.7499006390571594,jumping
1761226640643459600,-3.1580583727300167,4.160286034527421,1.086350883117318,-1.200732946395874,-0.4268276691436767,-0.8744329214096069,jumping
1761226640653472800,-2.347842352302372,4.008675084868074,1.361457864063978,-1.0376085042953491,-0.3289775252342224,-0.8790066242218018,jumping
1761226640663485400,-1.2405398665711282,3.641639177286625,1.2018944940954446,-0.7988525629043579,-0.2511827349662781,-0.7918247580528259,jumping
1761226640673498600,-0.6359749404828995,3.483920558401942,1.3278326578378676,-0.5356699824333191,-0.3410841524600982,-0.6584997177124023,jumping
1761226640683511600,-0.3020589199539273,3.3169717543572186,1.7044973945081232,-0.2561919093132019,-0.4410048127174377,-0.4869526028633117,jumping
1761226640693524500,0.0442801634922623,2.992189180615544,1.6177461627721783,0.0768627449870109,-0.3843599259853363,-0.3513068854808807,jumping
1761226640703537700,0.0428752651304006,2.639500362816453,1.2380933502018452,0.4721229076385498,-0.2149599194526672,-0.259350836277008,jumping
1761226640713550600,-0.2492302699554711,2.3973785366266966,1.0197188948243856,0.842487096786499,0.0082390839233994,-0.2540050745010376,jumping
1761226640723563800,-1.425231101924926,2.4802812762409445,1.6355232270032167,1.0695031881332395,0.1792803108692169,-0.3318539261817932,jumping
1761226640733576400,-2.3089982423841957,2.3872201307058334,2.84515971352756,1.1429637670516968,0.1652867347002029,-0.41035857796669,jumping
1761226640743589600,-2.203880602221936,1.915558896523714,4.020758905893564,1.1293624639511108,0.0434935353696346,-0.4528891146183014,jumping
1761226640753602600,-1.6194360155552625,1.4898270543456076,4.544056219288707,1.12889564037323,-0.0972380191087722,-0.5137998461723328,jumping
1761226640763615500,-1.3939540662601588,1.3862468528836964,4.506114318907261,1.1670396327972412,-0.241682544350624,-0.6399767398834229,jumping
1761226640773628700,-1.470145033276081,1.3232728025764229,4.431332926428317,1.1336480379104614,-0.3755372762680053,-0.8385515809059143,jumping
1761226640783641600,-1.6699490820877254,1.2041110011011362,4.738803130841255,0.9593873023986816,-0.5318611860275269,-1.050536870956421,jumping
1761226640793654800,-1.5872159999519586,1.2012234629660845,5.210805141285062,0.6670483350753784,-0.8069795966148376,-1.2141917943954468,jumping
1761226640803667500,-1.2511461623899638,1.4530214645177124,5.060457927951217,0.4058178961277008,-1.021653652191162,-1.3074514865875244,jumping
1761226640813680600,-1.01781291507259,1.9875737468987704,3.52829278409183,0.2785694003105163,-1.0784136056900024,-1.3050212860107422,jumping
1761226640823693600,-0.845094222389534,2.40996095482409,1.3448942672759294,0.298832893371582,-0.989706575870514,-1.169749140739441,jumping
1761226640833706500,-0.4507349121399223,2.194903661170602,-0.8219979358971119,0.3974840939044952,-0.6528712511062622,-0.9632718563079834,jumping
1761226640843719400,-0.5783442239649593,1.3376958802044392,-2.6129882034659384,0.4717650413513183,-0.2557283639907837,-0.797408401966095,jumping
1761226640853732600,-1.4414328796632587,-0.0649082332402467,-3.533406766104698,0.4945625066757202,0.0400945246219635,-0.7054784893989563,jumping
1761226640863746600,-2.0421309742555023,-2.1739713477790352,-4.61320398979485,0.5715921521186829,0.4839376807212829,-0.6655740141868591,jumping
1761226640873759500,-1.3799714258760214,-4.3928053351134055,-6.640295508089661,0.8185768723487854,1.2399156093597412,-0.6346510052680969,jumping
1761226640883772700,1.0597392819803209,-6.357305080416798,-9.047959876409172,1.1822298765182495,2.1248693466186523,-0.4678427875041961,jumping
1761226640893785600,4.292447895090282,-7.882364776185154,-9.65017232108712,1.429527759552002,2.3086631298065186,-0.0814740434288978,jumping
1761226640903798500,6.822460585966706,-9.187158503741026,-7.227820086723566,1.4453179836273191,1.7092149257659912,0.3859061598777771,jumping
1761226640913811700,7.72634653147757,-10.798763679540157,-4.493419087985158,1.3246999979019165,0.7151409983634949,0.6899254322052002,jumping
1761226640923824600,6.685850221562385,-11.958048281443116,-3.336922655496001,1.2347289323806765,-0.2877131402492523,0.7088741660118103,jumping
1761226640933837600,4.323969699296355,-11.692962928295136,-3.7145460080653434,1.2542213201522827,-1.047584056854248,0.6020116209983826,jumping
1761226640943850500,2.651167127473652,-10.537926631486416,-4.646497187587618,1.2392022609710691,-1.46376371383667,0.5495086908340454,jumping
1761226640953863700,1.603250312168896,-9.554980008742213,-5.065163329163194,1.0915038585662842,-1.338183879852295,0.4426431655883789,jumping
1761226640963876600,0.2872683789866976,-8.815053622332215,-5.267395628035068,0.7885956168174744,-0.708404004573822,0.2829807102680206,jumping
1761226640973889500,0.0071160699497442,-7.984241096338629,-4.867410221531987,0.2741203308105469,0.1334233433008194,0.1652154922485351,jumping
1761226640983902700,0.6703956079356372,-6.615127749085426,-3.1418904972612856,-0.3940658867359161,0.9581308364868164,0.1566548943519592,jumping
1761226640993915600,1.6244982673808932,-4.764063244304061,-0.7015709367915988,-1.125974178314209,1.533277153968811,0.2440590411424636,jumping
1761226641003928600,2.447614247522503,-2.864157259464264,1.7745912136927249,-1.7947288751602173,1.8678886890411377,0.388713389635086,jumping
1761226641013941500,3.069402768677473,-1.268985332071781,3.4869504276171326,-2.285510778427124,1.841467261314392,0.5486303567886353,jumping
1761226641023954700,3.262785113878548,0.1766074437499046,4.740325225841999,-2.5256824493408203,1.449221134185791,0.6848949790000916,jumping
1761226641033967600,3.122005647096038,1.4485527946710586,5.548498050004244,-2.5443406105041504,0.7352370023727417,0.8174207806587219,jumping
1761226641043980500,2.7351778283298014,2.583689628267288,6.010273265466093,-2.3710386753082275,-0.1633235067129135,0.9465150237083436,jumping
1761226641053993700,1.853295332573354,3.4602363159537317,5.87543926308453,-2.031845808029175,-1.0355018377304075,1.0306942462921145,jumping
1761226641064006700,0.7528275882329791,3.974562971907854,4.874233930072188,-1.5518556833267212,-1.7156118154525757,1.0778688192367554,jumping
1761226641074019600,-0.0851187716959044,4.385888103070855,3.6816707434237,-1.0623770952224731,-2.043727397918701,1.0768225193023682,jumping
1761226641084032500,-0.880398394678533,4.590291316241026,2.7102538149535653,-0.6864739060401917,-2.014676570892334,1.024707913398743,jumping
1761226641094045700,-1.5252438201636076,4.611221291545033,2.4488679008454084,-0.4851006269454956,-1.7556437253952026,0.948918640613556,jumping
1761226641104058600,-1.7569722626328468,4.559023486796021,2.7902397903382776,-0.4517606198787689,-1.367908954620361,0.8348722457885742,jumping
1761226641114071600,-1.8874077377945184,4.515729703992605,3.5388697076857087,-0.5581863522529602,-0.9746394157409668,0.6853232383728027,jumping
1761226641124084700,-1.88807643083632,4.482406695583462,4.454923645374179,-0.7588294148445129,-0.6459619402885437,0.5170497894287109,jumping
1761226641134097700,-1.8096261405862863,4.500704568818211,5.1951943151772015,-0.9584721922874452,-0.3592758476734161,0.3263227641582489,jumping
1761226641144110600,-1.5934217227242886,4.455263837113976,5.453358929151296,-1.0600464344024658,-0.1677902638912201,0.1204221919178962,jumping
1761226641154123500,-1.2853228650189936,4.423091167783737,5.285768904593587,-1.033430099487305,-0.0887812003493309,-0.0848995372653007,jumping
1761226641164136700,-0.8721903921730816,4.417095142239332,5.012814717766642,-0.8880257606506348,-0.1261306554079055,-0.2747764885425567,jumping
1761226641174149600,-0.6376810868136584,4.411553290203213,4.717415474897623,-0.643609344959259,-0.254594624042511,-0.4652710855007171,jumping
1761226641184162600,-0.541033607224375,4.343574563476443,4.311209001922607,-0.3588300347328186,-0.3974390029907226,-0.6399728059768677,jumping
1761226641194175500,-0.3224203746549784,4.362908209499716,3.853710148605704,-0.096849039196968,-0.441307932138443,-0.7553768754005432,jumping
1761226641204188700,0.0552794041514396,4.521254020372033,3.5724621806859966,0.0901152640581131,-0.4343644082546234,-0.8128038644790649,jumping
1761226641214201600,0.3602377718739211,4.757862636098265,3.5245839927017686,0.2143266946077346,-0.4466724693775177,-0.8116317987442017,jumping
1761226641224214500,0.6724819857556372,4.811811083906889,3.468735264229774,0.2727998495101928,-0.4263367652893066,-0.7500370144844055,jumping
1761226641234227700,0.7164276565965264,4.676056459549069,3.2391713063180445,0.2682357132434845,-0.3394332826137543,-0.6800131797790527,jumping
1761226641244240600,0.4700375054378062,4.349788031163811,2.9760879406422376,0.2070290893316269,-0.2114052176475525,-0.6351526975631714,jumping
1761226641254253600,0.1892901805166155,3.936742652079463,2.797573786488176,0.1198036447167396,-0.1735758036375045,-0.6519730091094971,jumping
1761226641264266500,-0.1445633692353963,3.404650622332096,2.5118507189810275,0.0518364943563938,-0.2663154304027557,-0.7108791470527649,jumping
1761226641274279700,-0.5046557412892579,2.8521301370620726,1.8788819015115497,0.0640191212296485,-0.4141903817653656,-0.8008041977882385,jumping
1761226641284292600,-0.9039598875299096,2.361319965773821,0.3788642925411462,0.217885822057724,-0.3641583621501922,-0.8758530020713806,jumping
1761226641294305500,-1.2724186675213276,2.067048850151896,-1.5543413198322056,0.4785110354423523,-0.1637741178274154,-0.912505269050598,jumping
1761226641304319700,-1.8484768263757227,1.8587854544222355,-2.958182866117358,0.8063950538635254,0.1058658957481384,-0.934703290462494,jumping
1761226641314332400,-2.3369734600245957,1.302174484968185,-3.881513516810536,1.1437828540802002,0.1998291462659835,-0.9724040627479552,jumping
1761226641324345600,-2.601595871835947,0.6010626901209354,-4.407012139642238,1.4474122524261477,0.1871219426393509,-0.9693741202354432,jumping
1761226641334358800,-2.350799886933714,-0.4681394897967577,-5.334581743079424,1.7172179222106934,0.5163456201553345,-0.910208821296692,jumping
1761226641344371500,-1.7173443088606,-1.9196873746305705,-6.866948546990752,1.9122573137283323,1.3911904096603394,-0.8306884765625,jumping
1761226641354384600,-0.3522180584821849,-3.691073362541199,-7.700632244506478,1.8663257360458372,2.654585838317871,-0.675209641456604,jumping
1761226641364397600,2.2200046385489403,-6.205394855549931,-6.163897893035411,1.3432673215866089,3.271313428878784,-0.3710968196392059,jumping
1761226641374410800,5.055435131353139,-9.51832171843052,-1.5869553031891583,0.3558928668498993,2.3675625324249268,0.1353402733802795,jumping
1761226641384423400,8.119445101076364,-13.998479758304356,2.836584192883968,-0.6379613280296326,0.0443018078804016,0.5945383906364441,jumping
1761226641394436600,8.886019255915283,-17.355542115509508,2.767142992389202,-1.0667946338653564,-2.531766176223755,0.6904316544532776,jumping
1761226641404449800,5.093744111481309,-17.1265381295681,-3.545909689325094,-0.7723970413208008,-4.107363224029541,0.5746495723724365,jumping
1761226641414462500,0.7792278847068548,-15.207287392789125,-12.063404844927788,-0.0696058720350265,-4.319358348846436,0.4072368741035461,jumping
1761226641424475600,-3.112667325386405,-12.732018391752243,-18.28595717150569,0.7317383885383606,-3.053983211517334,0.190391793847084,jumping
1761226641434488600,-5.664684050539136,-10.315116239488123,-21.673854227435587,1.3991358280181885,-0.7080522179603577,0.0492021888494491,jumping
1761226641444501800,-5.503305155581235,-8.140529974681138,-21.137256118440625,1.6917486190795898,1.684948205947876,0.1159030869603157,jumping
1761226641454514400,-2.9263945199295875,-6.363278309607505,-15.815931331819296,1.5702903270721436,3.3095664978027344,0.3786486983299255,jumping
1761226641464527600,-0.0099995986299589,-5.076758489888906,-7.875637513756751,1.1355518102645874,4.007318496704102,0.6717543601989746,jumping
1761226641474540800,1.7519167328089476,-4.049390541616082,-0.266390006005764,0.4801265895366668,3.778660774230957,0.8805171847343445,jumping
1761226641484553500,2.704764569887519,-3.126245768883824,6.043901978823542,-0.2350937277078628,2.822655439376831,0.9860113859176636,jumping
1761226641494566700,3.39788215111047,-2.009074215567112,9.945354706335069,-0.7820875644683838,1.49797523021698,1.0052095651626587,jumping
1761226641504579600,3.002298778958618,-0.5360246930211782,10.909114398050308,-1.0575779676437378,0.0843206048011779,0.9758058786392212,jumping
1761226641514592800,1.1205877915009856,1.1809843925356864,9.921694429284331,-1.1034998893737793,-1.0967334508895874,0.8653104901313782,jumping
1761226641524605400,-0.0817398333147168,2.175035762140155,7.559444489184021,-0.9463709592819214,-1.8109246492385864,0.6990910768508911,jumping
1761226641534618600,-0.6827409294415265,2.95461786711216,4.630817972418666,-0.63475102186203,-2.0877606868743896,0.4779506921768188,jumping
1761226641544631600,-1.543199163571,4.1185184383779765,2.04943720561564,-0.2006400525569915,-1.9594289064407349,0.2722010612487793,jumping
1761226641554644500,-1.6610824695430697,5.119420989051461,-0.0382879373401403,0.292339026927948,-1.502495527267456,0.1636466532945633,jumping
1761226641564657700,-1.4246819436095657,5.897524838164449,-1.17896370036304,0.760517418384552,-0.8921505808830261,0.1640810072422027,jumping
1761226641574670600,-1.1391858167260884,6.768392895692586,-1.0013099624305963,1.097683668136597,-0.2488483339548111,0.2737007141113281,jumping
1761226641584683800,-0.5949253564096987,7.368290049165487,0.4299661187469959,1.201808214187622,0.1965914815664291,0.4045253098011017,jumping
1761226641594696400,-0.1290589261114597,7.441752760261297,2.9022920520693063,1.0940561294555664,0.3777024149894714,0.4901675283908844,jumping
1761226641604709600,0.1435271580554545,7.043156177768111,5.240817417711019,0.8688838481903076,0.4578441977500915,0.4621963798999786,jumping
1761226641614722600,0.2376937806144356,6.609701632383465,6.531536442685127,0.6060734987258911,0.4892939925193786,0.3352453410625458,jumping
1761226641624735500,-0.0766020320348441,6.481155331969261,7.375261641743779,0.2816332876682281,0.4105656147003174,0.1357764303684234,jumping
1761226641634748700,-0.0851338596671819,6.356017378693819,8.292891450446843,-0.0873817652463913,0.2762821018695831,-0.0936572849750518,jumping
1761226641644761600,0.1565603887602686,6.165237032684684,8.604533972108364,-0.4292117953300476,0.1362251788377761,-0.3425918519496918,jumping
1761226641654774800,-0.0425455947846174,6.147912388396263,8.297587499308586,-0.6882798671722412,0.0674325302243232,-0.577287495136261,jumping
1761226641664787500,-0.123589116398245,6.305196707516909,7.479141118413209,-0.8663485646247864,0.0116352904587984,-0.7924663424491882,jumping
1761226641674800600,-0.128824752029404,6.538038664186001,6.4882976049393415,-0.9352357983589172,-0.0427307486534118,-0.984271764755249,jumping
1761226641684813600,-0.0677454294275492,6.69578183299005,5.363261894118786,-0.922168493270874,-0.1259262263774871,-1.0931942462921145,jumping
1761226641694826500,0.2061819863457232,6.886415464004874,4.406036280347407,-0.8640705943107605,-0.1758439838886261,-1.09245765209198,jumping
1761226641704839700,0.5742950216393917,7.110379117691516,3.428843398824334,-0.7683349847793579,-0.1930280923843383,-1.0338549613952637,jumping
1761226641714852600,0.7644686339270323,7.20990916697979,2.5065134496062997,-0.6370304822921753,-0.198004737496376,-0.9300511479377748,jumping
1761226641724865800,0.7797991817887872,7.069074462878704,1.6317361096799372,-0.4554948210716247,-0.2038093507289886,-0.8410853743553162,jumping
1761226641734878500,0.5155522522263228,6.781690184161066,0.6214841313809156,-0.2204226404428482,-0.1474416851997375,-0.7880224585533142,jumping
1761226641744891600,0.0750918832002207,6.349691098281741,-0.3839285901933908,0.0368614457547664,-0.0641035139560699,-0.7472934126853943,jumping
1761226641754904600,-0.1630390101898461,6.002238427570462,-0.9423884023845196,0.282999575138092,0.0254500731825828,-0.7068796753883362,jumping
1761226641764917500,-0.443613426229544,5.628730109104514,-1.1719617126464843,0.4947805404663086,0.0565765090286731,-0.6538655757904053,jumping
1761226641774930400,-0.8422917321894318,5.073042684236168,-1.1917939558416604,0.69142085313797,0.0237178988754749,-0.6123724579811096,jumping
1761226641784943600,-1.219099165266007,4.265326956191659,-1.6951088039159774,0.93805330991745,-0.0492759421467781,-0.58193039894104,jumping
1761226641794957600,-1.5361580128878354,3.5183085656940936,-2.7644901397928594,1.24744975566864,-0.1913955211639404,-0.5070838332176208,jumping
1761226641804970500,-1.5134122203335163,2.8303683871090413,-3.824000654518604,1.5165809392929075,-0.1446174383163452,-0.3326890170574188,jumping
1761226641814983700,-1.1747202175743878,1.9205039517104625,-4.545217372022569,1.6474798917770386,0.1594412475824356,-0.1738141626119613,jumping
1761226641824996600,-1.4344203705526888,0.6980974154621362,-4.582371921418607,1.602249264717102,0.7645514607429504,-0.1617975682020187,jumping
1761226641835009500,-2.2167801235444844,-1.1495137339949608,-4.36418772791624,1.414272427558899,1.8014198541641235,-0.2932847440242767,jumping
1761226641845022700,-2.0331489186376333,-3.3193986892431973,-3.689816640478373,1.0222275257110596,2.834779024124145,-0.4437442123889923,jumping
1761226641855035600,-0.3125415163278579,-5.332731731298566,-1.2558218991160393,0.3658486604690552,3.213850736618042,-0.4039944112300873,jumping
1761226641865048600,2.7555998541116717,-7.265707626569271,2.488594931077957,-0.4420831203460693,2.440720319747925,-0.143005758523941,jumping
1761226641875061500,5.689597542521358,-9.311592692661284,5.140678881135583,-1.0182617902755735,0.7016814351081848,0.1312289983034134,jumping
1761226641885074700,6.6870601818740365,-10.950315007966756,3.571527530184388,-1.1100361347198486,-1.2808793783187866,0.3211436867713928,jumping
1761226641895087400,5.402402648895978,-11.228354535233974,-1.530309871381521,-0.6859370470046997,-2.8785250186920166,0.4190042018890381,jumping
1761226641905100500,3.0002272333815694,-10.576347255295516,-7.497982597005366,0.103986769914627,-3.6693544387817374,0.4695929884910583,jumping
1761226641915113700,0.1837017493924126,-9.657959321701526,-12.662229985255005,1.068791389465332,-3.359978437423706,0.4008578658103943,jumping
1761226641925126700,-2.9486390849635,-8.575153563845157,-16.395748989337683,2.014810085296631,-2.130873203277588,0.2697574496269226,jumping
1761226641935139600,-4.300636169981956,-7.648758849406242,-17.91190875481367,2.742326021194458,-0.5092536807060242,0.243877112865448,jumping
1761226641945152500,-3.280320770569145,-6.835187965592741,-16.486420024865865,3.143649816513061,1.0268027782440186,0.3969553709030151,jumping
1761226641955165700,-0.9679644499287008,-5.718338483837247,-12.438120785617828,3.1844325065612797,2.082153081893921,0.7179751992225647,jumping
1761226641965178400,1.5318934873111545,-4.694234505796432,-6.847963276013732,2.8738293647766118,2.504298448562622,1.1409295797348022,jumping
1761226641975191600,3.225067669902742,-3.909147373667359,-1.000105262815952,2.2108309268951416,2.2999379634857178,1.596413493156433,jumping
1761226641985204700,4.239308425576985,-3.562960192847252,4.412179605408013,1.3715723752975464,1.82736611366272,1.9765650033950808,jumping
1761226641995217700,4.256850219747424,-3.639380584704876,8.039421131768822,0.5228099226951599,1.0483698844909668,2.1875929832458496,jumping
1761226642005230600,3.287979468628764,-4.193270020240545,10.004276850903034,-0.197357177734375,0.0972654074430465,2.191197156906128,jumping
1761226642015243500,1.8074083184063436,-5.073402165198326,9.903231720876692,-0.7182626724243164,-0.7994691133499146,1.9247231483459477,jumping
1761226642025256700,-0.3014490444272756,-5.61668954269886,8.10307848816514,-1.0245108604431152,-1.4543505907058716,1.439273238182068,jumping
1761226642035269400,-2.114209829777479,-5.781133085924386,5.723425577843189,-1.2150267362594604,-1.8607423305511477,0.8704398274421692,jumping
1761226642045282600,-3.232766115450859,-5.2580760110259055,3.920695772641897,-1.4107460975646973,-1.948738932609558,0.3548667132854461,jumping
1761226642055295700,-3.4745904199987647,-3.927196240577101,2.554817461787164,-1.6077989339828491,-1.702997088432312,-0.0897799730300903,jumping
1761226642065308700,-3.3568124740973118,-2.0130232454538346,1.4321107784360647,-1.784695029258728,-1.3351091146469116,-0.4430177211761474,jumping
1761226642075321600,-2.6370506315767765,-0.0208270994514226,0.6181777833119034,-1.9120864868164065,-0.9106521606445312,-0.6525235772132874,jumping
1761226642085334500,-1.570664970384538,1.9501766209185123,-0.0193988202139735,-1.9597240686416624,-0.4576345384120941,-0.7216597199440002,jumping
1761226642095347700,-0.5734634661860764,3.784654732558131,-0.4460337487116456,-1.9024983644485476,-0.0287838522344827,-0.6497693061828613,jumping
1761226642105360400,0.3102915454439818,5.29342672587037,-0.5352291587293148,-1.7529140710830688,0.3358052372932434,-0.4959672689437866,jumping
1761226642115373600,0.7559174440070986,6.343471200853585,-0.2095747705891728,-1.5385814905166626,0.5616561770439148,-0.3063483238220215,jumping
1761226642125386500,0.8597944364584982,6.868669379433989,0.474936894851923,-1.275681734085083,0.6539129018783569,-0.1700812727212906,jumping
1761226642135399700,0.483053273551166,6.953281845575571,1.242435763320327,-0.9739484786987304,0.6292864084243774,-0.1431130319833755,jumping
1761226642145412600,-0.0880453631997108,6.776569772407412,2.222715212681889,-0.7184225916862488,0.4239557981491089,-0.2009686529636383,jumping
1761226642155425500,-0.4161766628473997,6.533613833481073,3.354936451092362,-0.5239625573158264,0.1377368420362472,-0.3303500711917877,jumping
1761226642165438700,-0.6170790282897651,6.400406555518508,4.043014869104326,-0.3523339629173279,-0.1124235838651657,-0.4757806956768036,jumping
1761226642175451400,-0.6155315065868199,6.494662463796138,3.9355569494262337,-0.1708350181579589,-0.1415614932775497,-0.5880193710327148,jumping
1761226642185464600,-0.5514900462437421,6.836928671780228,3.2959137687593696,0.0248374491930007,0.0153558012098073,-0.6588429808616638,jumping
1761226642195477500,-0.3659174249455332,7.266767949277162,2.973745761430264,0.193509817123413,0.2649584412574768,-0.7019518613815308,jumping
1761226642205490700,-0.1565564432375133,7.547880892640352,3.312961641933024,0.2867474555969238,0.47510826587677,-0.7183377742767334,jumping
1761226642215503600,0.1776384672980755,7.773786912566423,4.2522231444686645,0.3098764717578888,0.5657007694244385,-0.7010740637779236,jumping
1761226642225516800,0.6150087248217314,7.889172118112445,5.228126862964034,0.2787016928195953,0.5876461863517761,-0.6502428650856018,jumping
1761226642235530000,0.9623539896357804,7.903328069236874,5.876287404346466,0.212231308221817,0.5119551420211792,-0.5836781859397888,jumping
1761226642245542700,1.2131848266556855,7.82800891661942,6.34363135985136,0.1270535588264465,0.3321624994277954,-0.512297511100769,jumping
1761226642255555800,1.3401399123556912,7.59213972108364,6.666729926028848,0.0182357430458068,0.0646226406097412,-0.4547917544841766,jumping
1761226642265568800,1.0914078011807054,7.1763611176431175,6.811997059619427,-0.1155780702829361,-0.3429275751113891,-0.4143434166908264,jumping
1761226642275582000,0.5850491284310817,6.596400252261757,6.517852785247564,-0.2001723200082779,-0.796308159828186,-0.401936799287796,jumping
1761226642285595000,0.0348585474133491,5.737313817942142,4.927025024539232,-0.1784961372613906,-1.1408307552337646,-0.3748062252998352,jumping
1761226642295608800,-0.3744887808706611,4.922604870009422,2.57554519251734,-0.0502486899495124,-1.3530497550964355,-0.3153945505619049,jumping
1761226642305621000,-0.9677039723616092,4.309043932843208,0.292011353996396,0.1775032579898834,-1.3786885738372805,-0.2580535113811493,jumping
1761226642315634700,-1.8959271443367005,3.45438291375041,-1.8594620385095475,0.4435117542743683,-1.1013778448104858,-0.263490080833435,jumping
1761226642325648000,-3.0459681170761583,2.341463757181168,-3.352943815970421,0.6173454523086548,-0.7013940215110779,-0.3412639796733856,jumping
1761226642335661000,-4.11968572859168,1.1583277395695448,-3.7159675653010606,0.7066692113876343,-0.3586385548114776,-0.5101083517074585,jumping
1761226642345673700,-4.772971065641939,-0.1682090332388877,-4.146072215735912,0.7836254239082336,0.1375029981136322,-0.7362485527992249,jumping
1761226642355687000,-4.683478718504309,-1.2664222035855055,-5.30215656029284,0.8424810171127319,0.9475353956222534,-0.956579864025116,jumping
1761226642365699800,-3.6381615643039344,-2.280576450020075,-5.941382684591412,0.8209988474845886,1.894539475440979,-1.0575803518295288,jumping
1761226642375712800,-1.3184873218655586,-3.4190848058760164,-5.2431730409264565,0.6226580739021301,2.6857078075408936,-0.9412174820899964,jumping
1761226642385725700,1.915847942598164,-4.923693249768019,-3.1143405192956326,0.1610237956047058,2.904399871826172,-0.666598379611969,jumping
1761226642395739000,4.435830822369456,-7.112951014006137,0.5097691387802362,-0.5424001216888428,2.181447744369507,-0.3589760959148407,jumping
1761226642405752000,5.960995732077956,-9.761561150473357,3.6934769165515897,-1.2223451137542725,0.7447920441627502,-0.1396435797214508,jumping
1761226642415764700,6.1503878385990856,-11.748001509428024,3.4924262286797165,-1.5563368797302246,-0.8944991827011108,-0.0680506229400634,jumping
1761226642425778000,4.436838538107276,-11.845523141503334,-0.3988154859408736,-1.4445966482162476,-2.2365963459014893,-0.0088587058708071,jumping
1761226642435790800,2.573809162504971,-11.300209811133143,-5.601971866038442,-1.0149904489517212,-3.076894998550415,0.0757107734680175,jumping
1761226642445803800,0.8172530063923448,-10.8359860334754,-10.040684381324052,-0.4181550741195678,-3.185866594314575,0.0931472033262252,jumping
1761226642455816700,-1.102962702961266,-10.287755938875677,-13.6152520098567,0.2079197466373443,-2.4562158584594727,0.0133469179272651,jumping
1761226642465830000,-2.3768805229991674,-9.537554826688766,-16.06592783690691,0.8075394630432129,-1.0303398370742798,-0.0781403928995132,jumping
1761226642475843000,-2.227329574609548,-8.537374745070935,-16.679169625121354,1.2875100374221802,0.5629346370697021,-0.0282742939889431,jumping
1761226642485855700,-0.6415577821165322,-7.396490892255306,-14.362087445002793,1.5365334749221802,1.743137240409851,0.2145140618085861,jumping
1761226642495869000,1.5507760285660623,-6.219229904156923,-9.516225038412212,1.5301765203475952,2.2935028076171875,0.5918144583702087,jumping
1761226642505881900,3.253748989985883,-5.118650589200854,-3.93387557221055,1.3134920597076416,2.250098466873169,1.0124096870422363,jumping
1761226642515894800,4.046720153363049,-4.173560526642203,1.1759952059462666,1.0538519620895386,1.90303373336792,1.3069547414779663,jumping
1761226642525907700,3.459543365253508,-3.298801891416311,4.777576805871725,0.7817713618278503,1.2935856580734253,1.4341278076171875,jumping
1761226642535921000,2.4351985641941427,-2.5141402912229296,7.593133992817997,0.4943127334117889,0.5034266710281372,1.4138562679290771,jumping
1761226642545934000,1.4321207153081894,-1.85461781334877,9.379401908040046,0.2118557095527649,-0.3594204485416412,1.2794921398162842,jumping
1761226642555946800,0.1355519413925707,-1.0867857674032448,10.060407318925858,-0.0825913622975349,-1.1398296356201172,1.038485050201416,jumping
1761226642565960000,-1.1445460285849869,-0.3781798174083233,9.620606034862996,-0.4210377633571625,-1.6531848907470703,0.7450932264328003,jumping
1761226642575972900,-1.958599581348896,0.4411737414598464,8.454480773285031,-0.8156471252441406,-1.8961964845657349,0.4285776019096374,jumping
1761226642585985800,-2.557330321390926,1.5510457854181527,7.039695223659277,-1.2006992101669312,-1.911579966545105,0.135789543390274,jumping
1761226642595998700,-2.5976854203939435,2.7274048562407494,5.433834728991985,-1.5319610834121704,-1.7952512502670288,-0.0878717750310897,jumping
1761226642606012000,-2.2548038569904865,3.920455534145236,3.955989204341173,-1.792574405670166,-1.5484570264816284,-0.2186571359634399,jumping
1761226642616024800,-1.822810908591002,4.977276955917477,2.342462120568752,-1.9344396591186523,-1.1170097589492798,-0.2953359484672546,jumping
1761226642626037800,-1.5572002163946628,5.833471760448813,0.6738631379157304,-1.9296913146972656,-0.6249260306358337,-0.3567864000797272,jumping
1761226642636051000,-1.2793946440137922,6.483650655916333,-0.6026280397415161,-1.753801703453064,-0.1527068167924881,-0.3958001136779785,jumping
1761226642646063900,-0.6698876584134995,6.885704100865126,-1.5553300386086106,-1.4306330680847168,0.2706800103187561,-0.4149099290370941,jumping
1761226642656076800,-0.108265436668694,7.2759899511307475,-1.9377458861514925,-1.0129183530807495,0.5850520730018616,-0.4125120043754577,jumping
1761226642666089700,0.1340738316640257,7.406507259356975,-1.5090151544183492,-0.5594747066497803,0.7420201301574707,-0.4297001659870147,jumping
1761226642676103000,0.2107979557085782,7.327669284963608,-0.3750859430462122,-0.1320778578519821,0.7096204161643982,-0.4793106019496918,jumping
1761226642686115800,0.0383854063652455,7.135078090140223,1.0234268094316123,0.2551875710487366,0.5274040102958679,-0.5760777592658997,jumping
1761226642696128800,-0.0556491873119026,6.957117478215694,2.311710131691396,0.5507140159606934,0.2891658842563629,-0.6775401830673218,jumping
1761226642706142000,0.1438438227891922,7.102160739922523,3.666028937655687,0.7066750526428223,0.0206897519528865,-0.7352749705314636,jumping
1761226642716155000,0.4594468455795198,7.35036159376502,5.018257785603404,0.7318139672279358,-0.2605323493480682,-0.7614442706108093,jumping
1761226642726167800,0.7734834227707237,7.540884165620803,6.025497138082981,0.6676378846168518,-0.5450896620750427,-0.7770199775695801,jumping
1761226642736180700,0.8997732494950293,7.629508205491304,6.574591740557551,0.5125588178634644,-0.7573196291923523,-0.7624791264533997,jumping
1761226642746194000,0.9805933376163244,7.692865702158212,6.6199430404126645,0.3098697066307068,-0.8731206655502319,-0.7113957405090332,jumping
1761226642756206800,0.8373765606842934,7.77256175468564,6.206502524530888,0.1134293675422668,-0.957098662853241,-0.6664330363273621,jumping
1761226642766219800,0.4367513949729502,7.586468105188012,5.27843257035613,-0.0319174416363239,-0.9972985982894896,-0.6484012603759766,jumping
1761226642776233000,-0.0474416231978684,7.18385293470323,3.7994752850711344,-0.0908555909991264,-0.9580588340759276,-0.6310145854949951,jumping
1761226642786246000,-0.6186613290451467,6.715670190286636,2.0492472360014915,-0.0469046458601951,-0.8213649988174438,-0.6006154417991638,jumping
1761226642796258800,-1.212604396419227,6.227250129005313,0.3604781565010547,0.0961949825286865,-0.6230018734931946,-0.5810723304748535,jumping
1761226642806271700,-1.8664046972543,5.616589589455724,-0.9209797036528586,0.3378778994083404,-0.4462647140026092,-0.6018304228782654,jumping
1761226642816285000,-2.48093389493078,4.772148935604095,-1.8511746871575712,0.6319111585617065,-0.3603024184703827,-0.6501790285110474,jumping
1761226642826297900,-2.8542697794392704,3.6722196089893577,-2.411697277097404,0.9052894115447998,-0.364743024110794,-0.7028699517250061,jumping
1761226642836310800,-3.156095548224449,2.296465508547425,-2.5746640257686373,1.0923937559127808,-0.398262619972229,-0.7585971355438232,jumping
1761226642846323700,-3.1915371562227604,0.6946101578682661,-2.6569085937350985,1.1860151290893557,-0.3474473357200622,-0.8447150588035583,jumping
1761226642856337000,-3.0155525205463167,-0.9534013793081044,-3.0712872672498226,1.175297737121582,-0.0826441720128059,-0.958693027496338,jumping
1761226642866349800,-2.2670849541537463,-2.512365098243952,-3.610191607360542,1.029349446296692,0.5403586626052856,-1.0097947120666504,jumping
1761226642876362800,-0.5387727861529216,-4.219845307955145,-3.9818148427322506,0.7065021991729736,1.4156312942504885,-0.9165902137756348,jumping
1761226642886376000,1.9968020323626696,-6.014815000548959,-3.3944445778772234,0.1394599825143814,2.1164233684539795,-0.6085926294326782,jumping
1761226642896388900,4.688903373901546,-7.803927199286222,-1.273353464153409,-0.6894901394844055,2.058488607406616,-0.1317022293806076,jumping
1761226642906401800,6.553255522540211,-10.343886406898498,1.0685653433188795,-1.4522629976272583,1.2839319705963137,0.2578921318054199,jumping
1761226642916416000,6.236168179476261,-12.82219609080553,0.4227642245441675,-1.8421863317489624,0.108961597084999,0.3989331126213074,jumping
1761226642926428700,3.55689256337136,-13.371260882663726,-3.127538146781921,-1.7415906190872192,-0.9340335726737976,0.3667893707752228,jumping
1761226642936441900,0.9515838815573604,-12.80543083396554,-8.220337086367607,-1.2604482173919678,-1.3912185430526731,0.2408069521188736,jumping
1761226642946454800,-1.0239102820996195,-11.795027464497087,-12.837510564315318,-0.5043758749961853,-0.8542596101760864,0.0338969528675079,jumping
1761226642956468000,-2.4174334826618438,-10.241482848000526,-16.231216598784922,0.32406747341156,0.4413509666919708,-0.176283985376358,jumping
1761226642966480600,-2.481173841166496,-8.597474701246618,-16.893713708555698,1.0324465036392212,1.9356834888458248,-0.2295342087745666,jumping
1761226642976493800,-0.2360045488858595,-7.590597752338647,-14.263339486002922,1.4862003326416016,2.994386672973633,-0.0884497910737991,jumping
1761226642986507000,2.4249967575229703,-6.424860613295436,-9.32883433484137,1.673902988433838,3.4353737831115723,0.2155282199382782,jumping
1761226642996519700,4.866071666404604,-5.046224235415458,-3.7073102115929126,1.568000316619873,3.2734527587890625,0.7227587103843689,jumping
1761226643006532900,7.1129176962584255,-3.601413549882173,2.186848072747886,1.2282408475875854,2.594088315963745,1.3310089111328125,jumping
1761226643016545800,8.219397175168991,-2.668608968400955,7.234127662435173,0.7181706428527832,1.448446273803711,1.891119122505188,jumping
1761226643026559000,8.053696909880637,-2.5497113708198067,10.65653079907894,0.2028674632310867,0.0099741220474243,2.321108102798462,jumping
1761226643036571600,6.529290125063062,-2.83451030921936,11.343792932271956,-0.1342578381299972,-1.278725028038025,2.4775500297546387,jumping
1761226643046584800,3.187837717182934,-3.3952386508643624,9.034325903332231,-0.2717615365982055,-2.1103055477142334,2.3335440158843994,jumping
1761226643056598000,-0.40406756125018,-3.730995038563013,5.689487067884206,-0.3391927778720855,-2.3436529636383057,1.9457553625106807,jumping
1761226643066610700,-3.0746868465602395,-3.6266263170719135,2.902407787403464,-0.4289190173149109,-1.946262240409851,1.438041090965271,jumping
1761226643076624000,-4.502387991860509,-2.9387580346792936,1.1076952844411134,-0.6094118356704712,-1.209822654724121,0.913439929485321,jumping
1761226643086636800,-4.773208089268207,-1.481527428033948,0.854139041045308,-0.9028950929641724,-0.4429647624492645,0.5190251469612122,jumping
1761226643096650000,-3.8330861705109474,0.1963619455337524,1.500889715629816,-1.2736176252365112,0.2792224586009979,0.2886060178279876,jumping
1761226643106662700,-2.5892820414468645,1.8824796337425709,2.215886243444681,-1.6229498386383057,0.8302764296531677,0.1684639602899551,jumping
1761226643116675800,-1.8659930477134885,3.3439234741687773,2.877569406484067,-1.8189129829406736,1.17703115940094,0.1070573329925537,jumping
1761226643126689000,-1.5564099427998066,4.187373363417387,3.085978055903315,-1.80350399017334,1.2612755298614502,0.0291884262114763,jumping
1761226643136701700,-1.4004545341953634,4.579171371811628,2.958143410889804,-1.5707050561904907,1.0685864686965942,-0.0491545833647251,jumping
1761226643146715000,-1.0423349965844302,4.974314014458656,2.7090023535877465,-1.1991946697235107,0.733555257320404,-0.0845488160848617,jumping
1761226643156727800,-0.7710611640598625,5.492376349809765,2.4355568761125204,-0.7372249364852905,0.3507058918476105,-0.0836867466568946,jumping
1761226643166741000,-0.7890650958493352,5.7796530764997005,1.940095079626143,-0.2261066287755966,0.0752412006258964,-0.0856659039855003,jumping
1761226643176753700,-0.8779322237607091,5.989416355398297,1.3967469118490814,0.2720677554607391,-0.1066455096006393,-0.1074361801147461,jumping
1761226643186766800,-1.0841042001690715,6.167432496902347,1.3120064354136585,0.7148795127868652,-0.206632375717163,-0.1399152129888534,jumping
1761226643196779800,-1.0779805296570062,6.235173907741904,1.5543173544347286,1.05191969871521,-0.1782830208539962,-0.1876830011606216,jumping
1761226643206792700,-0.8765667806264013,6.470599451163411,2.113117358365655,1.2432395219802856,-0.0929790958762168,-0.2366103678941726,jumping
1761226643216806000,-0.4681788719590753,6.808802647492289,3.221851338204741,1.2521328926086426,-0.0178049840033054,-0.2415774315595626,jumping
1761226643226818800,0.2211197354976087,7.1032970504760735,4.540460825145244,1.12345552444458,0.0601621642708778,-0.2310313284397125,jumping
1761226643236832000,0.5158813380502164,7.252293433722853,5.551894122183323,0.8910433650016785,0.1388745605945587,-0.216160774230957,jumping
1761226643246844700,0.4983087103500962,7.214787586671114,6.316267552107572,0.6387675404548645,0.1136297881603241,-0.2154654860496521,jumping
1761226643256857900,0.2308146886251866,6.812012841710448,6.592227935013175,0.4235590994358063,0.013703990727663,-0.238092765212059,jumping
1761226643266870800,0.0733786495415493,6.335042395204305,6.316293271070719,0.2511462271213531,-0.1173167452216148,-0.276085615158081,jumping
1761226643276884000,-0.0997517657475546,6.08682049857378,5.955380814805626,0.0728569105267524,-0.3624822795391083,-0.2967080771923065,jumping
1761226643286897000,-0.3617832112176343,5.76976998038888,5.642466958034039,-0.05392287671566,-0.6844598054885864,-0.3463316857814789,jumping
1761226643296909800,-0.9314294937357306,5.173834131762385,4.390914114539325,-0.0531806536018848,-0.9643514156341552,-0.4493531584739685,jumping
1761226643306923000,-1.716633237981796,4.570214742895961,2.2597356143042444,0.0750622749328613,-1.0975983142852783,-0.5745784640312195,jumping
1761226643316935700,-2.352193679379672,4.051956592711806,0.1257560851737856,0.2734328806400299,-1.031409740447998,-0.7064515352249146,jumping
1761226643326948900,-2.922056198464334,3.6287913861513137,-1.4190160268023608,0.4610523879528045,-0.7733914256095886,-0.8224082589149475,jumping
1761226643336961800,-3.307612389859557,3.311680662211776,-2.533803315331041,0.6053915023803711,-0.3241582214832306,-0.9102725982666016,jumping
1761226643346975000,-3.4483737364634868,2.731727395614981,-3.126149030511081,0.6807437539100647,0.1318960338830948,-0.961208999156952,jumping
1761226643356988000,-3.3168434518024323,1.9228034608244893,-2.852686601901054,0.6630792617797852,0.4582379460334778,-1.0127110481262207,jumping
1761226643367000800,-3.0234798064142465,0.6753834793508052,-2.096367299094796,0.5627498626708984,0.7709580659866333,-1.0858179330825806,jumping
1761226643377014000,-2.279724801626801,-0.7246002224624156,-1.570566478446126,0.3857865929603576,1.226667046546936,-1.1486531496047974,jumping
1761226643387026700,-0.8190829252332449,-2.045113497197628,-1.0867907358393072,0.092214897274971,1.7398158311843872,-1.1208326816558838,jumping
1761226643397039900,1.3690493421062826,-3.3969840332269667,0.0347360900774598,-0.3211663067340851,1.9055113792419436,-0.9800624847412108,jumping
1761226643407052800,3.688819738395512,-5.30243596175611,1.3737825081080195,-0.7191711664199829,1.6827757358551023,-0.7662878632545471,jumping
1761226643417066000,5.478953389135003,-7.640765512564778,1.596411698320508,-1.0475549697875977,1.033215045928955,-0.4903707802295685,jumping
1761226643427079000,6.28242139660716,-9.645092825865746,0.8571049051135778,-1.2214539051055908,0.0575294271111488,-0.2242196053266525,jumping
1761226643437091800,5.75041003088057,-10.860087040030956,-1.18129477365911,-1.1577163934707642,-1.062186598777771,-0.0123683381825685,jumping
1761226643447105000,4.252775809915364,-11.095401524293422,-4.321140028828382,-0.8510289192199707,-2.13161301612854,0.1470559686422348,jumping
1761226643457118700,2.4744398567363617,-11.334770252382755,-7.910010908001661,-0.3852492272853851,-2.9516069889068604,0.2225834876298904,jumping
1761226643467132000,0.4634441715873778,-11.800084747886658,-11.175779129344225,0.1990403980016708,-3.0545244216918945,0.1466713398694992,jumping
1761226643477144800,-1.491518806824833,-12.001301732236149,-14.741207173609732,0.7791274785995483,-2.164090156555176,-0.028857871890068,jumping
1761226643487157800,-2.729435777546465,-11.140257734107973,-17.413558251148462,1.2423285245895386,-0.515217125415802,-0.1344849169254303,jumping
1761226643497171000,-2.251816950134188,-9.609542204535009,-17.496431764668227,1.4885119199752808,1.1263316869735718,-0.0498922578990459,jumping
1761226643507183900,-0.2726191096536815,-8.262429676687717,-14.084737653565409,1.4454563856124878,2.1136834621429443,0.2072580158710479,jumping
1761226643517196800,1.811059534390271,-7.173959317198396,-8.17152600144744,1.093394756317139,2.283182144165039,0.5508020520210266,jumping
1761226643527209700,3.2529929109215736,-6.298358385929465,-2.057069892451167,0.6052486300468445,2.058887243270874,0.816453218460083,jumping
1761226643537223000,3.3877418653681874,-5.305265047702193,1.911474257558584,0.1790968030691146,1.7686389684677124,0.974924862384796,jumping
1761226643547235800,2.814996922715008,-3.891832666251063,3.9656954825803634,-0.1286404281854629,1.4336364269256592,1.0417404174804688,jumping
1761226643557248800,2.2835826460987327,-2.367408930298686,5.386726940858364,-0.3819880187511444,1.0150012969970703,1.0534383058547974,jumping
1761226643567262000,1.8684427789531648,-0.9675058925062416,6.582718348389864,-0.5921047925949097,0.5500140190124512,0.9801138043403624,jumping
1761226643577275000,0.8568257228460162,0.273657951182127,7.204737317299842,-0.7181798815727234,0.1603445708751678,0.8180769681930542,jumping
1761226643587287800,-0.2650518710034899,1.4659680398523809,7.209322891524434,-0.792186439037323,-0.2600201964378357,0.6291494369506836,jumping
1761226643597300700,-0.9213268365900964,2.609006440353393,7.434144623345136,-0.8706673979759216,-0.7227872610092163,0.4492536783218384,jumping
1761226643607314000,-1.2391072034195063,3.521854859998822,7.53809307359755,-0.947768211364746,-1.1475666761398315,0.2943333983421325,jumping
1761226643617326800,-1.289349197925627,4.430611041894555,7.21594961618781,-1.0390208959579468,-1.498405694961548,0.1977993994951248,jumping
1761226643627339800,-1.1584041658066213,5.317438885098696,6.652851622802019,-1.1267231702804563,-1.7528623342514038,0.1609721034765243,jumping
1761226643637353000,-0.9335010393127798,6.056641633409261,5.748920084583759,-1.192219614982605,-1.8493106365203855,0.1734484732151031,jumping
1761226643647366000,-0.7443693372935056,6.606606004455685,4.522100992590189,-1.2297993898391724,-1.740087389945984,0.231221467256546,jumping
1761226643657378800,-0.6236813491642474,7.013678154349327,3.257213743487,-1.2186739444732666,-1.439506769180298,0.3250544965267181,jumping
1761226643667391700,-0.5704354236017912,7.240265142276883,2.104502674755454,-1.1593496799468994,-0.9927721619606018,0.4545866847038269,jumping
1761226643677405000,-0.3843708540681749,7.260119597303867,1.2389660413831471,-1.0493276119232178,-0.4699941575527191,0.5952058434486389,jumping
1761226643687417900,-0.4061217903662473,7.132878534269333,0.8261760983645916,-0.8745607733726501,0.043671116232872,0.6747404932975769,jumping
1761226643697430800,-0.6441081241864711,6.738387049007415,0.9543658404260872,-0.6472128629684448,0.299783319234848,0.6393289566040039,jumping
1761226643707444000,-0.9173711577668784,6.052104574501514,1.8288164326161145,-0.4112969934940338,0.3193831145763397,0.5236327648162842,jumping
1761226643717457000,-0.9910602249644695,5.380670125037431,2.801240492302179,-0.2057949602603912,0.2396632730960846,0.3428986668586731,jumping
1761226643727469800,-0.9605332039494068,5.128636561164259,3.561918867100775,-0.0405099466443061,0.1050500273704528,0.1439753174781799,jumping
1761226643737482800,-0.7395272310245782,5.105079744488001,4.30769836345315,0.05282798781991,-0.0844770222902298,-0.0318236760795116,jumping
1761226643747496000,-0.316678543067351,5.134445539703965,4.986982357373833,0.0722574293613433,-0.2916095554828644,-0.1604416519403457,jumping
1761226643757508900,0.1181771012868732,5.2007285684287545,5.454269614255428,0.0137190222740173,-0.4925338923931122,-0.2371790409088134,jumping
1761226643767521800,0.430191086609289,5.229522701236605,5.679168502965569,-0.1140482574701309,-0.6146107912063599,-0.2928188443183899,jumping
1761226643777535000,0.4880704441260546,5.177357045191526,5.444876347488164,-0.2843347787857055,-0.6365083456039429,-0.325534462928772,jumping
1761226643787548000,0.4950576726648956,5.12330221439898,4.88327648370564,-0.4491624236106872,-0.5665337443351746,-0.3375423550605774,jumping
1761226643797560800,0.5849580891467631,4.949754742741584,4.026542749992013,-0.5905933380126953,-0.4218337833881378,-0.3085354566574096,jumping
1761226643807573800,0.8502011170744895,4.598471700087189,3.147911657246947,-0.6951428651809692,-0.2551770508289337,-0.2387788295745849,jumping
1761226643817587000,1.0673770103171467,4.066110205748677,2.241190780571103,-0.7158821821212769,-0.0355402939021587,-0.136577621102333,jumping
1761226643827600000,1.080863245486468,3.4231484020531178,1.157269754949212,-0.6635116338729858,0.2263115048408508,-0.0020965356379747,jumping
1761226643837612800,0.7063995259918272,2.832610613077879,0.436092492672801,-0.5745865702629089,0.2159329056739807,0.1117591932415962,jumping
1761226643847625700,-0.133905489359796,1.9537550639271732,0.0853057091027498,-0.3695036470890045,0.1523156017065048,0.100793108344078,jumping
1761226643857639000,-1.086541802579537,0.5600549724280834,-0.950336146518588,-0.090332992374897,0.2166535854339599,-0.0585446096956729,jumping
1761226643867651800,-2.0508698687672613,-0.6297048472374678,-1.73335524020195,0.1453998237848281,0.3100989758968353,-0.3097703754901886,jumping
1761226643877664800,-2.38950210416317,-1.5288959129303692,-1.9278671739548443,0.3624258637428283,0.4265824556350708,-0.6077131032943726,jumping
1761226643887678000,-1.656485351011157,-2.497114922142029,-2.443535892167687,0.5641124248504639,0.4991268813610077,-0.8384974002838135,jumping
1761226643897691000,-0.3142579648569226,-3.3537726680099964,-2.9777830541223285,0.7666618227958679,0.4790583550930023,-0.9569230675697328,jumping
1761226643907703800,1.1485549719654022,-4.035105995675921,-3.9258530092746016,1.0341917276382446,0.6654911637306213,-0.9622759819030762,jumping
1761226643917716700,2.1959942328862843,-5.048063725802302,-5.566366299650073,1.3088752031326294,1.0877786874771118,-0.8976013660430908,jumping
1761226643927730000,2.209017234458029,-5.847556984424591,-6.183590435498952,1.373862385749817,1.3032875061035156,-0.7755436897277832,jumping
1761226643937742800,1.7742619817383587,-6.274101896551251,-5.057726457160711,1.190705180168152,1.2722502946853638,-0.6201285719871521,jumping
1761226643947755800,1.7853604449883105,-7.174732055136561,-3.923922625733912,0.8771455883979797,1.1128441095352173,-0.5307337045669556,jumping
1761226643957769000,1.7424280428431926,-7.894329354745149,-3.743326112347841,0.5833944082260132,0.9627062082290648,-0.5471680760383606,jumping
1761226643967782700,1.404562261775136,-7.790873656445741,-4.413747000855207,0.363725870847702,0.9138757586479188,-0.5699346661567688,jumping
1761226643977795800,1.4432605334818362,-7.049473690351843,-5.17330280136466,0.1880211383104324,0.9664364457130432,-0.5146506428718567,jumping
1761226643987809000,1.7214773170121014,-6.529304738110303,-5.483302231994271,-0.0026371388230472,0.9842894673347472,-0.3663682341575622,jumping
1761226643997821700,1.963078626459092,-6.632360038915276,-5.430914457631111,-0.1751580387353897,0.9154363870620728,-0.1853861957788467,jumping
1761226644007835000,2.2001962146207688,-7.067490408557653,-5.558987295314669,-0.2486840188503265,0.6598827838897705,-0.0496757216751575,jumping
1761226644017847800,2.4543717589586973,-7.35461457503438,-6.149643157711624,-0.1331132054328918,0.4514480233192444,0.0279160067439079,jumping
1761226644027861000,2.6137635717526075,-7.130185641923546,-7.200062311226129,0.1271302700042724,0.3147328197956085,0.0859662741422653,jumping
1761226644037873700,2.665656256075203,-6.27863603284955,-7.7698191779792305,0.4256466627120971,0.2605944871902466,0.2199328541755676,jumping
1761226644047886800,2.785421868662536,-5.195976989987492,-7.743950577229261,0.6261478066444397,0.2935931980609894,0.3958640992641449,jumping
1761226644057900000,2.3779651033654807,-4.324973323380947,-6.972981402301788,0.6796302199363708,0.3971845507621765,0.5802818536758423,jumping
1761226644067912700,1.7450252197295426,-3.5878450432568787,-5.720180896833539,0.6441020965576172,0.5511409640312195,0.7766627669334412,jumping
1761226644077926000,1.1677224676415323,-2.77345056810081,-4.445099293713271,0.5663868188858032,0.7324984669685364,0.9655776023864746,jumping
1761226644087938800,0.3915948870375752,-1.8250562032997608,-3.0589521018117662,0.4758269190788269,0.9636280536651612,1.0926315784454346,jumping
1761226644097952000,-0.6167392018761485,-1.100515602070093,-1.6378917097002268,0.3880422115325928,1.24770987033844,1.0982470512390137,jumping
1761226644107964700,-1.6398114257164298,-0.5295692332714795,-0.1635842960476875,0.2984125316143036,1.5319972038269043,0.9881550073623656,jumping
1761226644117977900,-2.278420587160438,0.2357201424539089,1.5941975294023751,0.1767148673534393,1.6814359426498413,0.8476482033729553,jumping
1761226644127991000,-2.191134079504013,1.139205105948448,3.7433611836612224,-0.0181298982352018,1.5888328552246094,0.7094597220420837,jumping
1761226644138003700,-1.9464545316554605,1.8922382266908884,5.934871695262193,-0.284994900226593,1.241958498954773,0.5535082221031189,jumping
1761226644148017000,-1.960605952735245,2.4205770413845777,7.590041872021556,-0.5891206860542297,0.7901577949523926,0.3987921476364136,jumping
1761226644158029800,-1.8304760363914072,2.874509726652503,8.3412951236099,-0.8817155361175537,0.3264170587062835,0.2428579628467559,jumping
1761226644168043000,-1.7492055741541086,3.458620697450637,8.306023319220543,-1.0955673456192017,-0.1251273900270462,0.0893202424049377,jumping
1761226644178055700,-1.7493340228393672,4.001858390590549,7.762360678666829,-1.261099338531494,-0.5810658931732178,-0.0300428997725248,jumping
1761226644188068900,-1.5922382120281455,4.475378988903761,7.0362196565032,-1.3516212701797483,-0.9279600977897644,-0.1007250323891639,jumping
1761226644198081800,-1.4669240254029632,4.841731590396166,5.77456130631864,-1.3702985048294067,-1.0770183801651,-0.1484161168336868,jumping
1761226644208094700,-1.5079023708708583,5.170757208535075,4.375624483209848,-1.3267936706542969,-0.9942154288291932,-0.2036584764719009,jumping
1761226644218108000,-1.6054304326869546,5.4153007089138026,3.2594851955503223,-1.260297775268555,-0.7139179706573486,-0.2220689058303833,jumping
1761226644228121000,-1.535838717805594,5.740666635501384,2.7070360219508407,-1.2156167030334473,-0.3441734611988067,-0.1812689155340194,jumping
1761226644238134000,-1.1578096339795738,5.8630929917305705,2.7873049059301613,-1.2029880285263062,0.0021935240365564,-0.1059483289718627,jumping
1761226644248147000,-0.886106762387976,5.687568667042255,3.2064369114518163,-1.1762933731079102,0.3076967000961303,-0.0685551539063453,jumping
1761226644258160000,-1.0675929180901498,5.3511430017799135,3.577631692278385,-1.1181793212890625,0.4637576639652252,-0.0841141417622566,jumping
1761226644268173000,-1.2789670662514865,4.965452078089117,4.052046024560928,-1.0458356142044067,0.4740303456783294,-0.1429644972085952,jumping
1761226644278186000,-1.465192817696184,4.598839948877692,4.617833987683057,-1.0011645555496216,0.3355536758899688,-0.2427462190389633,jumping
1761226644288199000,-1.371819245211035,4.428305103039741,5.241798829963803,-0.970539927482605,-0.0283127557486295,-0.3237746953964233,jumping
1761226644298212000,-0.6702382254168391,4.498963862630725,5.521578478896617,-0.9158369898796082,-0.5075981020927429,-0.3193168342113495,jumping
1761226644308225000,0.3686317984707653,4.675150450620055,5.178305139696597,-0.8513971567153931,-0.8722811937332153,-0.2147703915834427,jumping
1761226644318238000,1.203424041750282,4.513119229233265,4.509358999916911,-0.7874940633773804,-1.027199149131775,-0.0641420036554336,jumping
1761226644328251100,1.3415272750608622,3.840537363299727,3.958627736151218,-0.7429737448692322,-0.8125033974647522,0.079420194029808,jumping
1761226644338264000,0.8157198054756969,3.416963575938344,2.4299784914582965,-0.6969069242477417,-0.248132973909378,0.1418009996414184,jumping
1761226644348277000,0.268144357126113,2.682540463119745,1.6978595639288423,-0.8860140442848206,-0.1050813645124435,0.2062155157327652,jumping
1761226644358290000,0.6359434493660926,2.0481202777981755,4.829124622279405,-1.048090934753418,-0.1840744465589523,0.195652350783348,jumping
1761226644368303000,-0.785231289840117,1.153629352620244,4.103144928157329,-1.1930999755859375,-0.2984296381473541,0.1101949214935302,jumping
1761226644378316000,-1.2769906516119838,-0.0256114111185073,3.78764105489254,-1.3744827508926392,-0.4303301274776459,-0.0196110121905803,jumping
1761226644388330000,-1.4999341684706509,-1.4142840298444033,3.4650311490148304,-1.6198769807815552,-0.6051676869392395,-0.1698665469884872,jumping
1761226644398343200,-1.686413164024055,-2.570871647748351,3.0070746150583028,-1.8954401016235352,-0.799990713596344,-0.3037711083889007,jumping
1761226644408355800,-1.1643600054711103,-3.178804223638773,2.4485955136448143,-2.171259880065918,-1.0805758237838743,-0.3850105404853821,jumping
1761226644418369000,-0.2560045681296847,-3.285219356265664,1.9083394666641949,-2.3674261569976807,-1.0829460620880127,-0.5047222971916199,jumping
1761226644428382000,-0.9882232479728758,-3.747148885506392,-0.0653232437819242,-2.350508213043213,-0.6692821383476257,-0.6427658200263977,jumping
1761226644438395100,-2.695749781043828,-5.2677311435997485,-3.0297312680244444,-2.1116793155670166,-0.2112210839986801,-0.7402644157409668,jumping
1761226644448408000,-2.523634680277109,-7.405255213469267,-5.642721809577941,-1.6637567281723022,-0.0164392068982124,-0.7219550013542175,jumping
1761226644458421000,-0.6217272924870252,-8.752934143027662,-7.205826281580329,-1.1306099891662598,0.0941275134682655,-0.5992221832275391,jumping
1761226644468434200,2.0809613479092715,-8.56289497077465,-8.641329625064134,-0.5606598258018494,0.2667394578456878,-0.4600119590759277,jumping
1761226644478446800,2.4824846315041182,-6.267719502037763,-10.37590417792797,0.012075588107109,0.4536044299602508,-0.4162359833717346,jumping
1761226644488460000,1.0201684652227907,-2.9570126532942056,-11.512857705557346,0.5497756004333496,0.6177554130554199,-0.493331640958786,jumping
1761226644498473000,-0.2704652560880407,-0.375628963881731,-10.78986024211645,0.8569430112838745,0.7117024064064026,-0.5927889347076416,jumping
1761226644508486100,-0.5611243186926469,1.5587240649610756,-8.436127954992651,0.7380245923995972,0.9287438988685608,-0.5273218154907227,jumping
1761226644518498800,0.0349085423012264,2.4334680871397256,-6.089898006322979,0.3030105829238891,1.2537102699279783,-0.3265397250652313,jumping
1761226644528512000,0.608043525451608,1.8100532799571751,-4.492969590651989,-0.1034896224737167,1.3581687211990356,-0.0481656119227409,jumping
1761226644538525200,0.9125451258499174,0.4760387186139821,-3.9063843386948105,-0.3851117193698883,1.1406729221343994,0.0277264881879091,jumping
1761226644548537900,-0.2609668119132519,-0.4202899433851242,-3.536801084718108,-0.5139535069465637,0.8707133531570435,0.0427060797810554,jumping
1761226644558551000,-1.2019921092510222,0.0422521647959947,-3.5518262198925017,-0.5207837224006653,0.7402480244636536,0.0326137654483318,jumping
1761226644568564000,-1.1822889723282306,0.2052332342535257,-3.918946883147955,-0.474624902009964,0.7244484424591064,-0.0038389733526855,jumping
1761226644578577200,-0.5239345883853733,-0.0732540367811918,-4.031481375437974,-0.4613061845302582,0.6516184210777283,0.021503934636712,jumping
1761226644588589800,0.5698492212116718,-0.0392763638556003,-3.552815815451741,-0.4702589213848114,0.3912421464920044,0.1023091226816177,jumping
1761226644598603000,1.1007362590834495,0.0513391420930623,-2.8777947396725416,-0.417827159166336,0.0402172952890396,0.1655376255512237,jumping
1761226644608616200,0.9814150292627511,0.1286544369637966,-2.579437231519818,-0.2720767855644226,-0.259444385766983,0.1725842803716659,jumping
1761226644618628900,0.5399957155440003,0.2036059253126382,-2.7209324453562496,-0.0792830884456634,-0.4259734451770782,0.1230409666895866,jumping
1761226644628642000,0.0904581234298646,0.0413169297724962,-2.573150698596239,0.0831420347094535,-0.4978357851505279,0.0383874177932739,jumping
1761226644638655000,0.0621209406092762,-0.4711562072694301,-1.8916729940235613,0.1650845855474472,-0.4548110663890838,-0.0236138999462127,jumping
1761226644648668200,0.3983665000643581,-1.024788453173637,-1.1847966443002222,0.1730267405509948,-0.377458393573761,-0.0446407198905944,jumping
1761226644658680800,0.8132666401699185,-1.4158219069361686,-0.6130348674654961,0.1708501428365707,-0.2929011583328247,-0.0386328995227813,jumping
1761226644668694000,0.9037668491758406,-1.5282967779934404,-0.3143704853206873,0.1857058852910995,-0.1655284166336059,-0.0238046031445264,jumping
1761226644678707200,0.7528563759360462,-1.3713660946160553,-0.0420610261380672,0.1647446751594543,-0.0636422559618949,-0.0277503430843353,jumping
1761226644688720000,0.6570850946594029,-1.076162666580081,0.4346329415142536,0.1051060184836387,-0.0522075369954109,-0.0283602550625801,jumping
1761226644698733000,0.7874928780965507,-0.6257488030880689,0.978795932805538,0.0517929941415786,-0.1335420757532119,0.0198810435831546,jumping
1761226644708746000,0.96924367608428,-0.0311117621004581,1.3443091608643531,0.0486748777329921,-0.1827897131443023,0.0929478406906127,jumping
1761226644718759200,0.7911071230709552,0.3133592624515295,1.3089035009622574,0.063529722392559,-0.3214690089225769,0.1189653277397155,jumping
1761226644728771800,0.2283053726853802,0.6843728414922953,1.377700558334589,0.0749981775879859,-0.4671409428119659,0.0974197164177894,jumping
1761226644738785000,-0.0748889079740271,1.156172022840381,1.2717425218254328,0.1024340689182281,-0.5115765333175659,0.0757101625204086,jumping
1761226644748798000,-0.1710351235102862,1.3945137459695338,0.9120657448351382,0.1709177941083908,-0.423296183347702,0.073347583413124,jumping
1761226644758811000,-0.1617262836234644,1.4700474181205034,0.4864876319140195,0.3111244142055511,-0.2527177929878235,0.0978723615407943,jumping
1761226644768824000,-0.0987734222346916,1.5059931762486696,-0.0172013101696968,0.5070187449455261,-0.0664911717176437,0.1320642828941345,jumping
1761226644778837000,-0.0147205627372488,1.577938468518853,-0.3332020270407199,0.7189027667045593,0.1029532551765441,0.1631079465150833,jumping
1761226644788850200,-0.0438619015475735,1.813725830990076,-0.3963742302685976,0.9326976537704468,0.2228896170854568,0.1737484037876129,jumping
1761226644798862800,-0.1252476241949945,1.978197431266308,-0.1760030481159687,1.1120437383651731,0.328460544347763,0.1685533821582794,jumping
1761226644808876000,-0.2337818678677082,1.9864263304293155,0.2779126860171556,1.236467957496643,0.4091092944145202,0.1472422331571579,jumping
1761226644818889000,-0.2553764080276712,2.0216993038624524,0.8673451440989971,1.2867271900177002,0.4516971707344055,0.1322020143270492,jumping
1761226644828903000,-0.1249181730449199,2.1276725379407404,1.5533312660068272,1.2570103406906128,0.4310552775859833,0.1135819926857948,jumping
1761226644838916000,-0.0813008573755621,2.2033950106620788,2.196210067594051,1.1782060861587524,0.3636536002159118,0.0834643021225929,jumping
1761226644848929000,-0.176938904193975,2.198644016742706,2.6433541156351565,1.0724419355392456,0.3261553347110748,0.0627103224396705,jumping
1761226644858942000,-0.3050700844686478,2.171571885421872,2.9695009634673597,0.9409987926483154,0.3365541696548462,0.060105487704277,jumping
1761226644868955000,-0.4099109169835224,2.072159325033426,3.203058959451317,0.7952829599380493,0.3966328501701355,0.0812173634767532,jumping
1761226644878968000,-0.4138136965757236,1.9319161570847037,3.1283506322085857,0.6853633522987366,0.4741894006729126,0.120549589395523,jumping
1761226644888981000,-0.2498690793156623,1.9018185404628516,2.807133641993999,0.6163794994354248,0.5401464700698853,0.1721754372119903,jumping
1761226644898994000,-0.119291273073852,1.7885177399754524,2.2913129480898378,0.6055998206138611,0.554218053817749,0.2277241796255111,jumping
1761226644909007000,0.004240669777058,1.683984767833352,1.7253016976058482,0.6664222478866577,0.550538182258606,0.2769142687320709,jumping
1761226644919020000,0.0683883304409682,1.6959084298610687,1.1408265696704387,0.7726131677627563,0.5768536925315857,0.2912096083164215,jumping
1761226644929033000,-0.0589910450857132,1.5973574547380207,0.844510211956501,0.8818045258522034,0.6224843263626099,0.2336106300354004,jumping
1761226644939046000,-0.2268358846547082,1.418717628377676,1.0278975251048803,0.8660415410995483,0.5266416668891907,0.1746671497821808,jumping
1761226644949059000,-0.0906456453585997,1.4129320307135582,1.86726277538836,0.7445403337478638,0.3414171040058136,0.1534570157527923,jumping
1761226644959072000,0.1694146096363663,1.278746847629547,2.464607321768999,0.5683245658874512,0.1430582106113433,0.152049258351326,jumping
1761226644969085000,0.0476161029819399,0.8736585650295019,2.740302331736684,0.4004401862621307,-0.006132076960057,0.1359464675188064,jumping
1761226644979098000,-0.2439767698740586,0.5578957485675812,2.520831313294172,0.2815164625644684,-0.089168906211853,0.0938658490777015,jumping
