timestamp,acc_x,acc_y,acc_z,gyr_x,gyr_y,gyr_z,activity
1761226650460873500,-0.0186983985933475,-0.0955909562736749,0.4575742566406726,0.127081960439682,-0.0467211380600929,-0.0646919310092926,jumping
1761226650470886100,0.0403819276444381,-0.1752268030464649,0.5479039313852787,0.0696918964385986,-0.0893562138080596,-0.0397053584456443,jumping
1761226650480899300,0.1160982857188209,-0.1558037251740694,0.7612158426761627,-0.034386821091175,-0.1796541810035705,-0.0689001679420471,jumping
1761226650490912300,0.032703524803929,0.0967874725818634,1.092423481029272,-0.1159445345401763,-0.2289785891771316,-0.1013254970312118,jumping
1761226650500925200,-0.4090407465528696,-0.0178770174741744,1.0612485905647278,-0.1255434453487396,-0.1904872804880142,-0.0497681051492691,jumping
1761226650510938000,-0.1386378333776257,-0.1486561915069818,0.5350561402499675,-0.069730244576931,-0.0791626051068306,-0.0196560099720954,jumping
1761226650520951300,0.1419281253609806,-0.1423480312734842,0.1852314797103404,0.0028975261375308,0.039319310337305,0.0076701645739376,jumping
1761226650530964200,0.2164351944105699,-0.0214712425738573,-0.003679565295577,0.0328192077577114,0.109930895268917,0.0279868878424167,jumping
1761226650540977200,0.2522501292333006,0.0602232902944087,0.0678331807762384,0.0200772173702716,0.1143969222903251,0.0241584256291389,jumping
1761226650550990300,0.1161144696686416,0.0912047040134668,0.2465361355006694,-0.035551156848669,0.0438172966241836,-0.0359091721475124,jumping
1761226650561003300,-0.3528846326321363,0.2755716758489608,0.4989484695583581,-0.0657390728592872,0.0023730522952973,-0.1285407543182373,jumping
1761226650571016200,-0.780575426858291,0.3750964644402265,0.4500608122706413,-0.0779792219400405,-0.0198046863079071,-0.1536676883697509,jumping
1761226650581029000,-0.4242620984191074,0.1234621290177106,0.2965548426449299,-0.0714304223656654,-0.0035248515196144,-0.1247322037816047,jumping
1761226650591042300,0.0535865556936711,0.0969657517582178,0.2593073542684316,-0.0846111997961998,0.0089858807623386,-0.1105665937066078,jumping
1761226650601055200,0.0331917421457124,0.0589952098041772,0.3698720077902078,-0.0855395793914794,0.0420100428164005,-0.096936322748661,jumping
1761226650611068200,0.0217171824422315,-0.0349000484675168,0.3533762155413627,-0.0873025879263877,0.0387870855629444,-0.0774148181080818,jumping
1761226650621081300,0.1581398947703652,-0.0155412680029869,0.2572784787893295,-0.0975048914551734,0.0039776521734893,-0.0444803386926651,jumping
1761226650631095300,0.3404848409926518,0.0251397019535303,0.262361481142044,-0.0961267054080963,-0.0274993143975734,-0.010781230404973,jumping
1761226650641108200,0.4548589697999879,-0.022784663259983,0.2286433359354734,-0.0809427872300148,-0.0351464077830314,0.0146222300827503,jumping
1761226650651121200,0.3619970000987872,-0.0558580808222293,0.141453128260374,-0.06941769272089,-0.0362111404538154,0.020416734740138,jumping
1761226650661134300,0.0605552987277507,-0.1260597442954778,0.1018804118067026,-0.060367651283741,-0.0159864798188209,0.003199981059879,jumping
1761226650671147300,-0.1960011493973434,-0.0875596255093812,0.0307984583675861,-0.0504010394215583,-0.012237281538546,-0.0471020713448524,jumping
1761226650681160200,-0.2868982305000536,-0.1807534575134515,0.1236550212413072,-0.0567366071045398,0.003067519981414,-0.0888218879699707,jumping
1761226650691173400,-0.4635010528737678,-0.1159030919402837,0.158445179593563,-0.0728055834770202,0.0048411851748824,-0.1129906177520752,jumping
1761226650701186300,-0.3183697840899229,-0.08814005574584,0.2299415590524673,-0.1001103520393371,-0.0177006255835294,-0.1282135099172592,jumping
1761226650711199200,-0.1983255189579911,-0.2085994958162307,0.3362508932173252,-0.1412806957960128,-0.0938744843006134,-0.1343688815832138,jumping
1761226650721212200,-0.0481949897152837,-0.2767290291905403,0.460186484965682,-0.1749395877122879,-0.1906767189502716,-0.1301533877849578,jumping
1761226650731225300,0.1095926849507726,-0.2906599393874406,0.4196791180104017,-0.1949806660413742,-0.1905387639999389,-0.1138279512524604,jumping
1761226650741238300,0.1640878616556525,-0.2669014626592397,0.183663792002201,-0.2166205495595932,-0.178225040435791,-0.0998822599649429,jumping
1761226650751251200,0.0152439267409383,-0.2098959653675556,0.1233610067307949,-0.2596210241317749,-0.1958706229925155,-0.1234365850687027,jumping
1761226650761264400,-0.2067420313812792,-0.1711772353947162,0.2363683772295713,-0.2444176524877548,-0.1279916316270828,-0.1273926794528961,jumping
1761226650771277300,-0.1608099359635263,-0.0481798012793064,0.0143786539644002,-0.2267755419015884,-0.0646842941641807,-0.1226900666952133,jumping
1761226650781290200,-0.1552507126674987,0.1832493659824133,-0.0470621954262256,-0.2339079976081848,-0.0245999824255704,-0.1183641776442527,jumping
1761226650791303200,-0.3634697029998526,0.3191886992573738,0.1360147365987301,-0.2456341683864593,-0.0064625237137079,-0.1128889843821525,jumping
1761226650801316400,-0.3054096186213195,0.1866536214679479,0.1695616168916225,-0.2501909136772156,-0.0082517815753817,-0.1053300648927688,jumping
1761226650811330300,-0.2530000708177685,0.1181535012155771,0.2198462814956903,-0.2354468703269958,0.0375734977424144,-0.1069876179099083,jumping
1761226650821343200,-0.2802471203140914,0.0350567003339529,0.1450263105720281,-0.2126283794641494,0.0903978794813156,-0.1215681284666061,jumping
1761226650831356200,-0.2482961674431338,-0.0012672434568405,-0.0104950905293226,-0.1856532245874405,0.1018489450216293,-0.1351209580898285,jumping
1761226650841369000,-0.121962300647702,-0.0482370844244956,5.84521889686e-05,-0.2046509683132171,-0.1021093875169754,-0.1466557085514068,jumping
1761226650851382300,0.1129975066918879,-0.0579442394465208,0.5568459472537041,-0.2756407260894775,-0.0902431383728981,-0.1409174054861068,jumping
1761226650861395500,0.3503298701154068,0.136609779882431,1.2074714174449444,-0.2886957228183746,0.1115890741348266,-0.1429990381002426,jumping
1761226650871408000,-0.1137958539953455,0.3101923228532076,0.1892535748332738,-0.2549529373645782,0.2596752047538757,-0.1567361503839492,jumping
1761226650881421300,-0.3872920022118836,0.1522521701723337,-0.2156675345063209,-0.2214356362819671,0.2648338973522186,-0.1434608995914459,jumping
1761226650891434200,-0.0928545535797253,0.0849731161475181,-0.1161883386224508,-0.1961206793785095,0.1877961158752441,-0.1345837861299514,jumping
1761226650901447400,-0.0437159172056242,-0.0245960965961217,0.0077741411328315,-0.125191643834114,0.1262994706630706,-0.161658689379692,jumping
1761226650911460000,-0.4033909771628677,-0.0656938306599855,-0.1069400332838296,-0.0039581595920026,0.1351936161518097,-0.202980563044548,jumping
1761226650921473300,-0.540508560436964,-0.115559393069148,-0.4090139316111802,0.0998738631606102,0.1658307313919067,-0.2349819540977478,jumping
1761226650931486200,-0.3947914180565625,0.0625713147252798,-0.3559410975933075,0.1217037886381149,0.1737885177135467,-0.2398371547460556,jumping
1761226650941499100,-0.0755878134910017,0.1788911707729101,0.1837842035114765,0.0766384974122047,0.1251632422208786,-0.2306904047727584,jumping
1761226650951512300,0.2646002365121618,0.1579430752903222,0.819265296062827,-0.0110495407134294,0.0425359979271888,-0.1997782886028289,jumping
1761226650961525200,0.6055236515851691,0.0933183351665735,1.2730062581509352,-0.1018105149269104,-0.0306441746652126,-0.1502650529146194,jumping
1761226650971538400,0.8347209316089749,-0.0103822778046131,1.3897779496192932,-0.1732926815748214,-0.0497675351798534,-0.0851736664772033,jumping
1761226650981552400,0.8363131692364811,-0.0082774144798517,1.2095914783388375,-0.1978779286146164,-0.0053472355939447,-0.0428823456168174,jumping
1761226650991565300,0.6626864948630332,-0.0604173515617847,0.7721200985282659,-0.2391731739044189,-0.0002339668571949,-0.0219365805387496,jumping
1761226651001578200,0.1843182738555595,-0.1920253776341676,0.4413672182053327,-0.2868982553482055,-0.0316472388803958,-0.0139046153053641,jumping
1761226651011591200,0.0869714868905022,-0.2917868975907564,0.7594459103941917,-0.3456454575061798,-0.0547749288380146,0.003810731228441,jumping
1761226651021604400,-0.0984894541941583,-0.3122457482516765,0.7226350598692893,-0.4050058126449585,-0.0811323225498199,0.0265347864478826,jumping
1761226651031617300,-0.1567884984277188,-0.2567266901254654,0.6697521954655646,-0.4320765733718872,-0.1307670027017593,0.0502510331571102,jumping
1761226651041630200,-0.1370978556603193,-0.1815647738963365,0.4083721265763044,-0.4247329831123352,-0.1650865375995636,0.0621738955378532,jumping
1761226651051643100,-0.1489350815135985,-0.1441162099897861,-0.037976971694827,-0.3805684745311737,-0.1806311309337616,0.0598039478063583,jumping
1761226651061656300,-0.178312713297829,-0.145951608723402,-0.4742518351972102,-0.3279145061969757,-0.17332623898983,0.0367558486759662,jumping
1761226651071669200,-0.2645954872718081,-0.186362529566884,-0.7210533436357974,-0.2711111307144165,-0.1565102338790893,0.0172335486859083,jumping
1761226651081682200,-0.2783420538777485,-0.2416939561665058,-0.8159422891199588,-0.2092490047216415,-0.1289528608322143,0.0020155836828052,jumping
1761226651091695400,-0.2546050948616117,-0.2958259438484907,-0.8502607383072376,-0.15274178981781,-0.0872765257954597,0.0043210824951529,jumping
1761226651101708300,-0.2063318431451916,-0.3031236996412277,-0.8344283784031867,-0.0889201983809471,-0.0503506809473037,0.003953862003982,jumping
1761226651111721200,-0.1742094609637744,-0.2659615514606237,-0.8151631214410067,-0.0222394373267889,-0.0335906073451042,0.0015612782444804,jumping
1761226651121734100,-0.135218983111158,-0.2076958249747753,-0.803267516463995,0.036235861480236,-0.0302702821791172,0.0010110095608979,jumping
1761226651131747300,-0.1190381750956177,-0.1161971064507961,-0.7616542340934276,0.0819378346204757,-0.0287152603268623,-0.014624142087996,jumping
1761226651141760300,-0.141801430241391,-0.1087520511418581,-0.6305272695362567,0.100712314248085,-0.0221104696393013,-0.0365842133760452,jumping
1761226651151773200,-0.1929633891366422,-0.1031090768188238,-0.3845844237536192,0.105585366487503,-0.0240700244903564,-0.0521961934864521,jumping
1761226651161787400,-0.1504616517600603,-0.1080202297359704,-0.1164437746882438,0.1028565168380737,-0.0258507318794727,-0.0586666800081729,jumping
1761226651171800000,-0.1061936901622451,-0.1069131452769041,0.0802495947569608,0.0867593064904213,-0.0283341296017169,-0.0600211657583713,jumping
1761226651181813200,-0.0565796365624293,-0.0789864429533481,0.1892155809104442,0.0662345960736274,-0.0440831035375595,-0.0548235327005386,jumping
1761226651191826400,-0.0031957090350799,-0.0104804774820804,0.3062269263535738,0.0575470998883247,-0.0490024946630001,-0.0489821545779705,jumping
1761226651201839000,0.0900004610565491,0.0540992544561624,0.3201706960320472,0.0682147368788719,-0.0436136648058891,-0.0416224040091037,jumping
1761226651211852300,0.1511646854628808,0.1240215164661407,0.2281073293626308,0.0864464715123176,-0.0289950426667928,-0.0366673246026039,jumping
1761226651221865200,0.1626099345901981,0.1201461363375186,0.1855968058913946,0.0964493080973625,-0.0109282070770859,-0.0334182977676391,jumping
1761226651231878400,0.1106075062828138,0.1000672249048948,0.2057727479577064,0.0912926271557807,0.0092929080128669,-0.0300664436072111,jumping
1761226651241891300,0.1037466623363085,0.0941255598962307,0.314566884675622,0.0760574787855148,0.0155818499624729,-0.0252010226249694,jumping
1761226651251904300,0.1282268409351818,0.0977232921272516,0.4397112676918506,0.0502466522157192,0.0075343092903494,-0.0318797007203102,jumping
1761226651261917400,0.051964927574899,0.0767500622034072,0.630476416131854,0.002511539729312,-0.0389652028679847,-0.047886736690998,jumping
1761226651271930000,-0.0496224195693619,0.0548170473366975,0.857003782826662,-0.0422775037586689,-0.0924468040466308,-0.054968349635601,jumping
1761226651281943300,-0.022649510839302,0.0351665904492139,0.863331816804409,-0.0725596025586128,-0.116437554359436,-0.0733499825000763,jumping
1761226651291956200,-0.0267247791878879,0.0285486336141824,0.7656792518258094,-0.0986862778663635,-0.1462007761001587,-0.085601583123207,jumping
1761226651301969400,-0.0301296739942394,0.0617366174668073,0.6397147845983505,-0.1052073761820793,-0.163445845246315,-0.0958238840103149,jumping
1761226651311982300,-0.0338334238830022,0.0890817205101251,0.4759796819031238,-0.0883165448904037,-0.1733488142490387,-0.0959519818425178,jumping
1761226651321996300,-0.0092568722375668,0.0368622884511947,0.1789063683420419,-0.0392431877553463,-0.1312104314565658,-0.0850090608000755,jumping
1761226651332009200,0.0540628862348385,0.0745405694603919,-0.182313546437025,0.013457840308547,-0.0854354798793792,-0.0807956755161285,jumping
1761226651342022100,0.1110583553228527,0.1499000540882349,-0.2258861461818218,0.0477843023836612,-0.0364413410425186,-0.0764113366603851,jumping
1761226651352035300,0.0511235083146952,0.1115858132630586,-0.0385796137630939,0.0498786121606826,0.0107749067246913,-0.0800388231873512,jumping
1761226651362048500,-0.039381285534799,0.0459001659095287,0.1010591585516929,0.0394011996686458,0.0399944148957729,-0.0803375765681266,jumping
1761226651372061200,-0.0661110331587493,-0.0043102644145488,0.2417079846918582,0.0029526446014642,0.0386007837951183,-0.0680066049098968,jumping
1761226651382074400,-0.0246105635128915,-0.021072598645091,0.3787041335433721,-0.0539607033133506,0.0164514854550361,-0.0584568046033382,jumping
1761226651392087300,-0.0101307141963392,-0.0685199939966201,0.5356897619783878,-0.1102695167064666,-0.0096000889316201,-0.0430307127535343,jumping
1761226651402100200,0.0169378369279205,-0.0968815806061029,0.5472416680842638,-0.1438021808862686,-0.0324228480458259,-0.0260911416262388,jumping
1761226651412113200,0.0973382383324205,-0.0569067130923271,0.426105351665616,-0.1543829143047332,-0.0640939623117446,-0.0046164761297404,jumping
1761226651422126300,0.1620322443000972,-0.0025526070922613,0.3319546573281288,-0.1609215140342712,-0.0818991139531135,0.0072429655119776,jumping
1761226651432139500,0.1593724505063146,0.012443301987648,0.2853600794136524,-0.1632043719291687,-0.0979931280016899,0.0197134837508201,jumping
1761226651442152200,0.1346001753593795,0.0543389084309339,0.2232902844697236,-0.1527518182992935,-0.1303612738847732,0.0298227928578853,jumping
1761226651452165400,0.1322023021711036,0.0284545255899429,0.1059878471255302,-0.1165307015180587,-0.1304435729980468,0.0395081788301467,jumping
1761226651462178300,0.1085683834043331,-0.0072363809943199,-0.176345577943325,-0.0662439167499542,-0.1308400928974151,0.030296579003334,jumping
1761226651472191200,0.0031060579902492,-0.0075239657640457,-0.2946691750288009,-0.0156481191515922,-0.1160206645727157,0.0138704683631658,jumping
1761226651482204200,-0.1511125534168444,0.0323866043418645,-0.2901239328145981,0.0360497944056987,-0.0985055491328239,0.0027604300994426,jumping
1761226651492217300,-0.2081112008426338,0.0963742156058549,-0.2815349681675434,0.083218902349472,-0.0731093734502792,-0.0020921155810356,jumping
1761226651502231300,-0.1995294148550368,0.1812321809411048,-0.3314893779039383,0.1083241626620292,-0.0831664204597473,-0.0144416568800807,jumping
1761226651512244200,-0.0361426689397543,0.4795855974406003,-0.1812964783489704,0.1374921649694442,-0.0783586129546165,-0.0116847520694136,jumping
1761226651522257400,0.1317655181890353,-0.0162029467821121,-0.1508843889504671,0.1762892752885818,-0.0357035957276821,0.0178371686488389,jumping
1761226651532270000,0.0675922846924513,-0.6209943020373583,-0.2663882524400949,0.1652755141258239,0.0107983937487006,-0.0122696030884981,jumping
1761226651542283300,-0.0218461950997822,-0.4745312366604804,0.0264852713435888,0.0959381610155105,0.0133529147133231,-0.050768781453371,jumping
1761226651552296400,-0.0692974811751395,-0.1234849253714084,0.5281956068307161,0.0104618724435567,-0.0018737087957561,-0.0468283668160438,jumping
1761226651562309400,-0.0012358619378879,-0.0736176093965768,0.7590168713271618,-0.0570275075733661,0.0059713460505008,-0.0273535214364528,jumping
1761226651572322300,0.108658801634144,-0.1802273878127336,0.7236568041324615,-0.0945048406720161,-0.009573258459568,-0.0192585755139589,jumping
1761226651582335200,0.1237926213474012,-0.2787865462422371,0.7243377721339463,-0.0947934389114379,-0.0621316656470298,-0.0133040836080908,jumping
1761226651592348400,0.1367423567535355,-0.2802706473201513,0.6075912151068449,-0.0797108858823776,-0.1001195237040519,-0.0048687867820262,jumping
1761226651602361000,0.1556279302157461,-0.2061433348357677,0.2857195603758096,-0.0592500045895576,-0.0996607840061187,0.0048363842070102,jumping
1761226651612374300,0.1385262444956228,-0.0199421333104372,0.0485024573624134,-0.0357646532356739,-0.1005300432443618,0.0080947615206241,jumping
1761226651622387200,0.0892776814736425,0.0419528895884752,0.041684594041109,-0.0325237698853015,-0.0985917150974273,0.007004247047007,jumping
1761226651632400400,0.0471712452912703,-0.0622486586421728,0.1483656841278076,-0.0316561087965965,-0.0825078189373016,0.0071448618546128,jumping
1761226651642413300,0.0590640007240697,-0.0903051248252391,0.1830266631424427,-0.0246078707277774,-0.0656131207942962,0.0087035307660698,jumping
1761226651652426200,0.0452258833771571,-0.0159743987232446,0.1750409250855445,-0.0043715750798583,-0.0392510294914245,0.0082795554772019,jumping
1761226651662439400,-0.0037827516754157,0.0151361943334341,0.0934112741470336,0.0246324520558118,-0.0174814276397228,0.0014642224414274,jumping
1761226651672452000,-0.0528826086753979,-0.0268710557907819,0.0864630624443292,0.041551511734724,0.0046608923003077,0.0025699669495224,jumping
1761226651682466300,-0.1128022033154964,-0.0586462502360343,0.1661076770454645,0.0416135862469673,0.0058604036457836,0.0040061776526272,jumping
1761226651692479500,-0.137121674927324,-0.0369143108993768,0.3173836956620216,0.0432370491325855,-0.0105912741273641,0.0065942374058067,jumping
1761226651702492200,-0.1451357440295629,0.0050438393861055,0.3000315788447856,0.0764251723885536,0.0239691231399774,0.007443955168128,jumping
1761226651712505300,-0.1889533315113745,0.0389344185501337,0.1338707103073597,0.1163475587964057,0.050736553966999,0.00155783619266,jumping
1761226651722518300,-0.2033613942333497,0.1730833612769842,0.0751209996968507,0.1555016189813614,0.0532187335193157,-0.0018705406691879,jumping
1761226651732531200,-0.2230416800035163,0.3224345493108034,0.1872691230177879,0.1831558942794799,0.0257394406944513,0.0100356535986065,jumping
1761226651742544100,-0.1837513972204178,0.3644727790951728,0.2083522430568933,0.2440842092037201,0.0112935937941074,0.0292446203529834,jumping
1761226651752557300,-0.1605259496566839,0.3756172734439373,-0.1286228727817535,0.3669731020927429,0.0801024809479713,0.0239696986973285,jumping
1761226651762570500,-0.2788540037215687,0.4630804528415203,-0.5821136595010757,0.5040571689605713,0.1965914070606231,0.0109491581097245,jumping
1761226651772583200,-0.3636644218543544,0.8491653442859649,-0.5435638563543558,0.6032963991165161,0.3070337772369385,-0.014122107066214,jumping
1761226651782596400,-0.3961038888946175,1.2213070505738255,-0.0313923326075077,0.6446598768234253,0.334634006023407,-0.0354396253824234,jumping
1761226651792609300,-0.3681029157584533,1.3079291029721498,0.5174100089222192,0.65050208568573,0.2774349153041839,-0.0764906555414199,jumping
1761226651802622200,-0.4526823198806494,1.3098241229385137,0.8915057718873024,0.6496926546096802,0.1811042428016662,-0.1718216687440872,jumping
1761226651812635100,-1.0706911033011972,1.4780635513156652,1.229737609788775,0.7003709673881531,0.1233850121498107,-0.2320831418037414,jumping
1761226651822648300,-0.920917086745426,1.3634773871928452,0.917818024751544,0.8383485674858093,0.1040766015648841,-0.2457180917263031,jumping
1761226651832661500,-0.4226643443662673,1.531335707297921,0.1976806269168853,1.044613003730774,0.0780181065201759,-0.2858836054801941,jumping
1761226651842674200,-0.8395420681551098,2.0895891832619906,-0.3513824113756418,1.2354379892349243,-0.0051450235769152,-0.3335044384002685,jumping
1761226651852688400,-1.0290568512078373,2.9638959830671547,-0.1951706899225711,1.393362045288086,-0.285660833120346,-0.4596245586872101,jumping
1761226651862701000,-1.5938986925862728,3.1074609889149665,0.3493488597214221,1.5266653299331665,-0.5533669590950012,-0.5339841842651367,jumping
1761226651872714200,-1.9300496325604617,3.045116468682885,0.5609989752799273,1.6636724472045898,-0.6923387050628662,-0.5495676398277283,jumping
1761226651882727400,-1.815077099468559,3.378511387947201,0.2289852812409401,1.8260669708251955,-0.6268984079360962,-0.5403233170509338,jumping
1761226651892740400,-1.7252619501173496,3.9592297936975953,-0.4925859487891197,2.040311813354492,-0.129053995013237,-0.5217221975326538,jumping
1761226651902753300,-1.7096942324988542,4.451328835752606,-1.14757545940876,2.174959421157837,0.3874410986900329,-0.4548147618770599,jumping
1761226651912766200,-1.5228664235077798,4.534481166213751,-1.0837208268746732,2.10953426361084,0.295163094997406,-0.3409755527973175,jumping
1761226651922779400,-1.1442846011698244,4.714237429383397,0.3776774208441376,1.8738216161727903,-0.0475080907344818,-0.2165881395339965,jumping
1761226651932792000,-0.7385193691562861,4.605562535130978,1.6336691235691307,1.5646255016326904,-0.2012406587600708,-0.0940518379211425,jumping
1761226651942805200,-0.4534236397672444,3.985618034407496,1.4070906112089752,1.274585485458374,-0.161169558763504,0.0177442710846662,jumping
1761226651952818400,-0.4483494783081114,3.2995693686574694,0.1554702554360032,1.1610642671585083,0.0400836654007434,0.1015864461660385,jumping
1761226651962831400,-0.2878995347633957,2.622407189196348,-1.8935808734714985,1.2546873092651367,0.5029090642929077,0.1567785888910293,jumping
1761226651972844300,-0.0511006571620702,1.7995102586328982,-4.028487162058055,1.417693257331848,1.040911316871643,0.1756382882595062,jumping
1761226651982857200,0.0233505535144358,0.979773253405094,-4.8845136242851614,1.5154664516448977,1.387891411781311,0.1751445680856704,jumping
1761226651992870400,0.0269043004732578,0.1265998425215482,-4.247862611171603,1.488832950592041,1.3910762071609497,0.2011817693710327,jumping
1761226652002883000,0.5088676598958671,-0.9459387883424758,-2.772878613431752,1.4270511865615845,1.074968934059143,0.2408495247364044,jumping
1761226652012896300,1.1447955463666468,-2.176990403339267,-1.581627386164665,1.4360052347183228,0.4803949892520904,0.2410095781087875,jumping
1761226652022909400,1.3901912065953017,-3.377809377157688,-1.15328214661777,1.5035247802734375,-0.2743836045265198,0.2500083446502685,jumping
1761226652032923100,1.7774580013006924,-4.229359570753574,-0.9211191121235488,1.5808627605438232,-0.9709709286689758,0.3235928118228912,jumping
1761226652042936300,2.0956470219962298,-4.598149044004082,-0.949463163076341,1.6848057508468628,-1.4070675373077393,0.4536080956459045,jumping
1761226652052949200,2.139354938558489,-4.676247013685107,-1.2985162547215818,1.7365869283676147,-1.484035849571228,0.5862204432487488,jumping
1761226652062962200,1.7789400565519928,-4.576290847939252,-1.5553408522635697,1.6372700929641724,-1.249359965324402,0.7309251427650452,jumping
1761226652072975400,1.5995692855685948,-4.611031321930885,-1.2038390522919595,1.3936846256256104,-0.796421229839325,0.9141730070114136,jumping
1761226652082988300,1.9606177893035115,-4.933702018085122,-0.5062174376480281,1.0687100887298584,-0.1608724892139434,1.1002238988876345,jumping
1761226652093001500,2.611875273787976,-5.345018381419777,0.2906232606388628,0.6914491057395935,0.3807769119739532,1.3025681972503662,jumping
1761226652103014100,2.7516362111777064,-5.510322925388813,1.5244982624933123,0.2303214371204376,0.7335957884788513,1.418334722518921,jumping
1761226652113027300,2.5510581092536446,-5.674179024115205,3.4950428409188983,-0.2755830287933349,0.8381525278091431,1.5695044994354248,jumping
1761226652123040300,2.7362749759167437,-5.767011621591449,5.264587584877014,-0.8152483701705933,0.6277226209640503,1.6372143030166626,jumping
1761226652133053200,2.4442051697313785,-5.614193049708009,6.749224669364095,-1.2118186950683594,0.1390852928161621,1.5803371667861938,jumping
1761226652143066400,1.8126688692830504,-4.986646841809153,7.320483172851801,-1.4779980182647705,-0.5021369457244873,1.3994873762130735,jumping
1761226652153079300,1.285919515737891,-4.373991329050064,7.131068269976973,-1.757105827331543,-1.5225120782852173,1.2044845819473269,jumping
1761226652163092500,0.8929832970939576,-3.495584108188748,7.670852607792615,-2.035651206970215,-2.667977094650269,1.054098129272461,jumping
1761226652173105200,0.5786457641948014,-2.1578625090211627,7.8498782186001534,-2.243571519851685,-3.41664981842041,0.8639915585517883,jumping
1761226652183118300,-0.3109900491021573,-0.8116495603621006,5.94603021813631,-2.3551905155181885,-3.641250371932984,0.6800174117088318,jumping
1761226652193131300,-1.3498454599425196,0.5604232212185859,2.95072816619724,-2.3037784099578857,-3.414940595626831,0.4749135076999664,jumping
1761226652203145200,-2.319915503848344,1.7808932364463803,0.0349888957947492,-2.095609426498413,-2.916062593460083,0.2583445310592651,jumping
1761226652213158400,-2.8799995562404392,2.804239674118161,-2.29808843357414,-1.763807773590088,-2.1825852394104004,0.010716613382101,jumping
1761226652223171300,-3.042067310245335,3.5914766777575013,-3.700726449288428,-1.3955146074295044,-1.299048900604248,-0.2196853905916214,jumping
1761226652233184300,-2.7292735727220774,3.836704653269052,-4.263460285536945,-1.1099990606307983,-0.5312491655349731,-0.4455068111419678,jumping
1761226652243197400,-2.242015394826978,4.16125750990808,-3.527394081686437,-0.9432714581489564,-0.021946083754301,-0.6302653551101685,jumping
1761226652253210400,-1.7538816031411288,4.484016468867659,-1.7827286351799965,-0.848110020160675,0.2675901055335998,-0.7531641125679016,jumping
1761226652263223300,-0.8747421224825084,4.434335030853748,-0.0212757200017571,-0.7963495850563049,0.3587006032466888,-0.8480543494224548,jumping
1761226652273236200,-0.1120588376022875,4.474436155095696,1.4927560935348272,-0.7636398077011108,0.2278989404439926,-0.931114912033081,jumping
1761226652283249400,0.4272584672234952,4.683175936165452,2.761977572450041,-0.7229570746421814,-0.0589142888784408,-0.9738696217536926,jumping
1761226652293262600,1.0897010703280567,4.864947630810737,3.5188384347870945,-0.668665885925293,-0.3178944587707519,-0.9785227179527284,jumping
1761226652303275300,1.4946777092471717,5.006372702020406,3.676518475227058,-0.5877054929733276,-0.5246244072914124,-0.951877236366272,jumping
1761226652313288400,1.527722339106351,5.253208112728595,3.3762715000659225,-0.4685412943363189,-0.6223562955856323,-0.9112001061439514,jumping
1761226652323301400,1.4132396353580057,5.491653296232223,2.845882182583213,-0.3210542798042297,-0.5980690717697144,-0.8678145408630371,jumping
1761226652333314300,1.1347158317051826,5.573678668490052,2.2181498044624925,-0.1810449808835983,-0.5113722681999207,-0.8142751455307007,jumping
1761226652343327200,0.8677909151051193,5.633078367441892,1.8170526373252271,-0.0246908813714981,-0.4104504287242889,-0.7157142162322998,jumping
1761226652353340400,0.7361600196138024,5.778975031107664,1.5250962283864615,0.1672982573509216,-0.1854527443647384,-0.5968581438064575,jumping
1761226652363353600,0.6469383791763335,5.665146991875767,0.9431927045047284,0.3518754839897156,0.0652672797441482,-0.5205615758895874,jumping
1761226652373367300,0.2916949815236032,5.362513121578097,0.7028454867720604,0.4512324333190918,0.1804966777563095,-0.5099062919616699,jumping
1761226652383380500,-0.0952161316119134,4.778395136517286,1.3603069404631851,0.4434013068675995,0.1121975257992744,-0.5226806402206421,jumping
1761226652393393200,-0.0542833788514137,4.073296317860484,2.321200136831403,0.3801605701446533,-0.1051816642284393,-0.5451244711875916,jumping
1761226652403406300,-0.1490615574374794,3.481076859408617,2.7941268609046936,0.3270228505134582,-0.4303326606750488,-0.545175313949585,jumping
1761226652413419500,-0.2915796115156263,2.996714549085498,2.401672726689279,0.395851194858551,-0.7380657196044922,-0.4762492477893829,jumping
1761226652423432400,-0.164200674380362,2.3886872806489468,0.9140382139518856,0.5804937481880188,-0.7649538516998291,-0.421958714723587,jumping
1761226652433445400,-0.2880851204633712,1.472600025212765,-1.314629769654572,0.7654723525047302,-0.5062719583511353,-0.4248676896095276,jumping
1761226652443458300,-1.181759833887592,0.5254886859595775,-2.8630314703047275,0.8613967895507812,0.084927000105381,-0.4411681890487671,jumping
1761226652453471500,-1.6098649080030618,-0.8330605971813202,-3.912049524849653,0.8703114986419678,1.0001503229141235,-0.4231862425804138,jumping
1761226652463484200,-0.9821953659854828,-2.9699668274134394,-5.082221431469917,0.7775487303733826,2.0845234394073486,-0.3364532589912414,jumping
1761226652473497300,0.4804466347167268,-5.558695034369826,-5.761794179204106,0.5146297812461853,2.7840416431427,-0.1117197647690773,jumping
1761226652483510300,2.4556930706903337,-8.043894477790593,-4.849646893565357,0.0570979006588459,2.662539482116699,0.198829710483551,jumping
1761226652493523500,4.533872678926587,-10.687477726006508,-1.952732150620222,-0.4509362876415252,1.855478882789612,0.374039351940155,jumping
1761226652503536400,5.486552758222818,-13.526376625573636,0.5866083405718207,-0.864963948726654,0.6354211568832397,0.3557828068733215,jumping
1761226652513549300,4.477510447974503,-14.597683668816089,1.6006868914216756,-1.0781118869781494,-0.5120888948440552,0.2611734569072723,jumping
1761226652523562500,3.029107875429094,-13.983691354495289,0.2219230877697467,-1.1140371561050415,-1.2527599334716797,0.2060581892728805,jumping
1761226652533575400,2.023881908598542,-12.775616710460186,-2.8448005248263475,-1.0468977689743042,-1.456713318824768,0.188777208328247,jumping
1761226652543589400,1.1046918648414312,-11.195228510701655,-5.849578845641017,-0.8904759883880615,-1.1173487901687622,0.1946202665567398,jumping
1761226652553602600,0.4921967668084427,-9.716835873562095,-8.240076390582322,-0.6430302262306213,-0.4477474987506866,0.194247156381607,jumping
1761226652563615200,0.2339723854711279,-8.097543065869807,-9.391641796410084,-0.458364725112915,0.2027209848165512,0.2350950539112091,jumping
1761226652573628400,0.3669576181808486,-6.244264976692199,-8.419583647426963,-0.4574536681175232,0.5544982552528381,0.3896015286445617,jumping
1761226652583641300,0.920437778795883,-4.373862734234333,-5.532359985151887,-0.6089803576469421,0.6471543312072754,0.5992400646209717,jumping
1761226652593654300,1.3984908329069614,-2.7298025650322435,-2.315239182600379,-0.7721942663192749,0.6632778644561768,0.7832666039466858,jumping
1761226652603667200,1.2707147862128914,-1.082309498772025,-0.147361475521326,-0.8328292369842529,0.5889005064964294,0.905409574508667,jumping
1761226652613680400,0.7931013656280934,0.488135399121046,1.0141478166937827,-0.7731198072433472,0.3578854501247406,0.991698920726776,jumping
1761226652623693600,0.2572095782715827,1.8840707023262977,1.8614225249275564,-0.6184903979301453,0.0393538735806942,1.0824089050292969,jumping
1761226652633706200,0.2247751162,2.92832081181705,2.5138331249698997,-0.443329244852066,-0.2461875975131988,1.2058613300323486,jumping
1761226652643719400,0.2430298078801482,3.7168835111022,2.868648725664616,-0.2709991931915283,-0.4123670160770416,1.3804292678833008,jumping
1761226652653732400,-0.033572745386511,4.372441761520505,3.0097715990573164,-0.114633560180664,-0.4551315307617187,1.5483871698379517,jumping
1761226652663745300,-0.5544514533326029,4.6797079677939415,2.912303742995858,0.0233265291899442,-0.3850632607936859,1.6412696838378906,jumping
1761226652673758200,-1.3614203085325658,4.841621115759015,2.7050354957833886,0.1516717225313186,-0.2261361628770828,1.6473309993743896,jumping
1761226652683771400,-2.2472445276521147,4.835558454719186,2.489763098074496,0.2587396800518036,-0.0365060716867446,1.5614081621170044,jumping
1761226652693784600,-2.905149779587984,4.678981407085061,2.4685268333002925,0.3505697250366211,0.1481045186519622,1.3726840019226074,jumping
1761226652703798300,-3.235214969907701,4.513271204924584,2.764562035985291,0.4007307291030884,0.2439581900835037,1.0947574377059937,jumping
1761226652713811500,-3.192300834071636,4.336349872919917,3.357834510621428,0.389325737953186,0.2293355613946914,0.763429582118988,jumping
1761226652723824400,-2.794439580115676,4.220634412506223,4.335447371122241,0.2976986169815063,0.104186363518238,0.4208808839321136,jumping
1761226652733837300,-2.259652904456854,4.2887218603044746,5.321113189697265,0.1775192022323608,-0.0530586466193199,0.0980133712291717,jumping
1761226652743850500,-1.617789417392015,4.551817500939965,5.839477722865343,0.0795561671257019,-0.1489723771810531,-0.1917642802000045,jumping
1761226652753863400,-0.975422364719212,4.9078141281127925,5.620091460096836,0.0225296337157487,-0.1962323039770126,-0.4345785081386566,jumping
1761226652763876400,-0.6967486312016844,5.5257882055461405,5.228379960942268,-0.0036782729439437,-0.1954537630081176,-0.6374385952949524,jumping
1761226652773889300,-0.1646095474421978,5.880179735609889,4.828153731420636,-0.0202535204589366,-0.1626103222370147,-0.771434485912323,jumping
1761226652783902500,0.3528596443213522,6.056502517199516,4.5106823574751616,-0.0633580237627029,-0.1544327139854431,-0.8245289921760559,jumping
1761226652793915400,0.8357698561400174,6.202458802098035,4.435457312881947,-0.1179440319538116,-0.2230778336524963,-0.8046023845672607,jumping
1761226652803928300,1.208296908483654,6.151248254820704,4.358552352377772,-0.1387198865413665,-0.3298516273498535,-0.7149747610092163,jumping
1761226652813941500,1.4633372529573738,5.7982274285882704,3.8658451152965423,-0.1003264263272285,-0.4620669186115265,-0.5982851982116699,jumping
1761226652823954400,1.5016056088142096,5.217442971864342,3.052954907223582,-0.0007326402701437,-0.6897835731506348,-0.4650412797927856,jumping
1761226652833967400,1.3557706122078002,4.471413592404127,2.104333163407445,0.1644195616245269,-0.9222663640975952,-0.3386968970298767,jumping
1761226652843980300,0.8151727660521865,3.5767303595244884,1.1694143662512302,0.3277879059314728,-1.1559221744537354,-0.3157095313072204,jumping
1761226652853993500,-0.109576519267261,2.306613393074274,0.1383905258193612,0.4644551873207092,-1.354846477508545,-0.4494795799255371,jumping
1761226652864006400,-1.646736694934964,1.0596171899706124,-0.7763304096996784,0.5523053407669067,-1.4358570575714111,-0.6866890788078308,jumping
1761226652874020400,-3.008549363785982,-0.1366162096232175,-1.9222069562360644,0.6529102325439453,-1.3670319318771362,-0.9671734571456908,jumping
1761226652884033500,-3.9498318507552144,-1.0057575894892214,-3.3006308604091403,0.8154276609420776,-1.1600704193115234,-1.173082947731018,jumping
1761226652894046200,-4.480985722869634,-1.3544038538992405,-5.015629190665483,0.9998407363891602,-0.7267424464225769,-1.2836294174194336,jumping
1761226652904059400,-4.479484378395974,-2.124095848497748,-6.797991915142536,1.148971676826477,0.169093370437622,-1.361446499824524,jumping
1761226652914072300,-4.193230272752047,-4.303865068900585,-8.65817613044679,1.218239665031433,1.5034807920455933,-1.503989338874817,jumping
1761226652924085500,-4.149452213563025,-7.110408928307891,-9.734294373363255,1.1748007535934448,2.779530763626098,-1.5384705066680908,jumping
1761226652934098400,-2.54915519824177,-9.864014978253842,-9.028543228277565,0.9344355463981628,3.2647547721862797,-1.3579329252243042,jumping
1761226652944111400,0.9024730830382556,-12.128232998669146,-6.160820969808102,0.4912211298942566,2.504955291748047,-0.9693323969841005,jumping
1761226652954124500,4.426769564035535,-13.579900125968456,-1.5455089018180963,0.1100841537117958,0.9017710089683532,-0.5577008724212646,jumping
1761226652964137200,6.455132417440414,-14.62470377768874,0.9868673033192752,0.0269757770001888,-0.6173312067985535,-0.2792831361293793,jumping
1761226652974150400,5.475649086892605,-13.758368687415125,-0.2935498156100511,0.2621693909168243,-1.5467702150344849,-0.1030931994318962,jumping
1761226652984163300,3.4687840718075638,-11.809730528110263,-4.005746337939798,0.607297956943512,-1.8710016012191768,0.0555877089500427,jumping
1761226652994176500,2.2484429436564444,-9.811377613043785,-7.097786178100109,0.9874660968780518,-1.4964066743850708,0.165489450097084,jumping
1761226653004189200,1.2805252554789184,-8.240298508900404,-9.316966786915064,1.3765963315963743,-0.3602525889873504,0.2172124534845352,jumping
1761226653014202400,0.3625000177174806,-6.912037396517396,-11.143712258476018,1.6495027542114258,1.0791292190551758,0.3006620705127716,jumping
1761226653024215600,0.1762853721886873,-5.288587469145655,-10.818792906612158,1.664256930351257,2.221240520477295,0.501594066619873,jumping
1761226653034228200,0.8295049505263566,-3.5500282305598256,-7.168517418405413,1.465685248374939,2.8767213821411133,0.7796834707260132,jumping
1761226653044242400,1.687915239150077,-1.946135821095109,-1.9754203677684068,1.06959867477417,2.9964406490325928,1.0511258840560913,jumping
1761226653054255400,2.1512258474856614,-0.4121960687786341,3.32023280197978,0.5056289434432983,2.6431868076324463,1.2772793769836426,jumping
1761226653064268300,2.622660871696472,0.4843219783127307,7.924716309702396,-0.0311181526631116,2.025257110595703,1.3902785778045654,jumping
1761226653074281500,3.042193274712562,0.967865373468399,10.589881275129317,-0.3626529574394226,1.111214280128479,1.4511011838912964,jumping
1761226653084294400,2.747851431941986,1.9869167442947624,10.79096148135662,-0.5831320285797119,-0.0166081022471189,1.3575117588043213,jumping
1761226653094307300,2.0806893991000948,3.042987055438757,10.472442644184827,-0.7837601900100708,-0.9470326900482178,1.1036373376846311,jumping
1761226653104320300,1.2327435136064886,3.298404416531324,9.467538456654548,-0.9625796675682068,-1.4864567518234253,0.7867180109024048,jumping
1761226653114333400,0.0400245518743991,3.5257740792691705,7.575614702740311,-1.0770013332366943,-1.6789015531539917,0.5078251361846924,jumping
1761226653124346400,-0.7194469313524663,4.022102721717953,5.53528201007843,-1.1481695175170898,-1.7751458883285522,0.2791178524494171,jumping
1761226653134359300,-1.1837680319048465,4.761568504878879,4.194626695546508,-1.193049073219299,-1.84378981590271,0.1051319167017936,jumping
1761226653144372500,-1.369966895342618,5.2887184020489455,3.366090005530417,-1.1820207834243774,-1.7570531368255615,-0.0326239429414272,jumping
1761226653154385400,-1.274135700572282,5.566898799091577,2.278938619685173,-1.1156595945358276,-1.4728602170944214,-0.1483364403247833,jumping
1761226653164398300,-1.021011418852955,5.996089841812848,1.028461296467483,-1.001022458076477,-1.0658763647079468,-0.2189542353153228,jumping
1761226653174411300,-0.4181991085857153,6.514015983563661,0.139534142896533,-0.8596833944320679,-0.638597846031189,-0.2403953373432159,jumping
1761226653184424400,0.3031916503109038,6.9896145571947095,-0.1751008385792374,-0.6992714405059814,-0.2751406729221344,-0.192027136683464,jumping
1761226653194437400,0.7951420776754617,7.388374221295118,-0.0840653536528348,-0.5060287714004517,0.0671098530292511,-0.1468189060688018,jumping
1761226653204450300,1.2157763044536114,7.610949050971866,0.1589952146917581,-0.2936901152133941,0.3287608027458191,-0.1271010339260101,jumping
1761226653214464500,1.4983097821392115,7.641296842962503,0.5994996785879135,-0.0883026123046875,0.434226781129837,-0.1151964366436004,jumping
1761226653224477200,1.6529581997983156,7.697368858796358,1.399319392685592,0.107830598950386,0.3919048905372619,-0.1079618334770202,jumping
1761226653234493000,1.8251853826373812,7.711857987397908,2.3448674281448123,0.284708172082901,0.3286247253417969,-0.1273437887430191,jumping
1761226653244505900,1.696523054628074,7.6434110586375,3.0242642347902056,0.4090515971183777,0.2190486490726471,-0.1599234342575073,jumping
1761226653254519000,1.4527372407488524,7.516975466766953,3.717198568400741,0.4641023278236389,0.0199486017227172,-0.1975805312395095,jumping
1761226653264532000,1.4860532348953186,7.405577285030484,4.534052127146721,0.4746792614459991,-0.2255326062440872,-0.235013723373413,jumping
1761226653274545000,1.493493906290084,7.338567695596813,5.053555893477797,0.450150728225708,-0.3597793877124786,-0.2812949419021606,jumping
1761226653284558000,1.3977858995079993,7.247917702856659,4.983395146536827,0.3797789216041565,-0.4444283246994018,-0.3200056254863739,jumping
1761226653294571000,1.2650078067429362,7.233412207642197,4.821251696947217,0.2464030385017395,-0.4931996166706085,-0.3512072265148163,jumping
1761226653304584000,1.1105547655254602,7.145756720542908,4.654582294365763,0.0790832713246345,-0.4944789707660675,-0.397147923707962,jumping
1761226653314596900,0.9375197734348476,6.7778796859622,4.130647559849917,-0.0871211513876915,-0.3986107409000397,-0.4465157389640808,jumping
1761226653324610000,0.4913755500860512,6.3198693759918205,3.22819456975162,-0.1978351473808288,-0.2426875978708267,-0.5078513622283936,jumping
1761226653334623000,-0.3718099901154637,5.881841531342268,2.068956729599833,-0.2252369374036789,-0.1021648421883583,-0.5280498266220093,jumping
1761226653344636000,-1.0652374410051852,5.395692922124266,0.93167323936373,-0.1466426104307174,-0.0132543314248323,-0.517515242099762,jumping
1761226653354649000,-1.4726915028885006,4.632807684931159,-0.1522808117449283,0.0138203017413616,-0.0658957064151763,-0.5214769840240479,jumping
1761226653364662000,-1.890860216335952,3.536812775155901,-0.9777025846108792,0.1754139810800552,-0.1460381150245666,-0.5476102232933044,jumping
1761226653374675000,-2.2173805736556647,2.081926685810089,-1.769832620988786,0.2493252158164978,-0.1025188639760017,-0.6075571775436401,jumping
1761226653384689200,-2.8127614187479018,0.6262573371320963,-2.6701538597553967,0.2224549055099487,0.0388960726559162,-0.7506027817726135,jumping
1761226653394702000,-3.993049645712972,-0.7591606637120246,-3.501839369191229,0.2674450278282165,0.4726555049419403,-0.9680885076522828,jumping
1761226653404715000,-4.883901922127604,-2.7338994789570568,-5.135751946127415,0.3906328976154327,1.471613883972168,-1.252583384513855,jumping
1761226653414728000,-5.201936190652847,-5.368900776788592,-7.120359244436025,0.3506692349910736,2.8813669681549072,-1.4113314151763916,jumping
1761226653424741000,-3.832119371305406,-8.360439384540914,-7.383731363925337,-0.127381294965744,3.7059073448181152,-1.080819845199585,jumping
1761226653434753800,1.0354032245598732,-11.275189936167,-4.48127330763936,-0.9904556274414062,3.1365773677825928,-0.2076156735420227,jumping
1761226653444767000,7.521133170968294,-14.618350024747848,0.9057695673003792,-1.6693915128707886,1.3107422590255735,0.5744785666465759,jumping
1761226653454780200,9.926460620772838,-18.055072194123262,2.957157906983793,-1.71971333026886,-0.8516199588775635,0.9938446879386902,jumping
1761226653464793000,6.94597181482315,-19.13550011693239,-1.315808458045125,-1.0996851921081543,-2.404770374298096,1.202049732208252,jumping
1761226653474806000,2.907570869255066,-18.506706539320945,-9.60356839082241,-0.0357424579560756,-2.8306124210357666,1.2091730833053589,jumping
1761226653484819000,-1.6668528696380556,-15.94613592083454,-17.223270657092332,1.2057429552078247,-1.8946610689163208,0.9238572120666504,jumping
1761226653494832000,-6.126884797936677,-12.768597771608828,-22.3121942165494,2.401660203933716,0.1063916087150573,0.5404648184776306,jumping
1761226653504844800,-8.180826913756132,-10.241576371502877,-24.028411274945736,3.228179931640625,2.0930895805358887,0.2612083256244659,jumping
1761226653514858000,-7.105921553760767,-8.202187097170949,-20.89513078511953,3.4998793601989746,3.133474111557007,0.2229946255683899,jumping
1761226653524871200,-4.239433221000433,-6.577212736710906,-12.554552869868278,3.1856374740600586,3.2965729236602783,0.3911084234714508,jumping
1761226653534884000,-0.756862688967958,-5.155186129915714,-2.493659813252091,2.462976455688477,3.008554458618164,0.6560189127922058,jumping
1761226653544897000,1.848321051292121,-3.5984552845984696,6.187804253801703,1.4991841316223145,2.481963634490967,0.950859546661377,jumping
1761226653554911000,3.3764509482860565,-2.05600138643682,12.540547725391388,0.5861502885818481,1.8154830932617188,1.213477611541748,jumping
1761226653564924000,3.505015368878841,-0.6752133834809064,15.703207454437017,-0.2609976828098297,0.8582697510719299,1.369914174079895,jumping
1761226653574937000,2.7121377290040254,0.6536603078424931,16.64920118783712,-1.0090886354446411,-0.2300163656473159,1.3661285638809204,jumping
1761226653584950000,1.971160664497316,1.625453668409586,16.53645042244792,-1.5555416345596311,-1.15446674823761,1.180000066757202,jumping
1761226653594963200,0.8220195632070303,2.583434192201495,14.430397011119126,-1.8549251556396484,-1.638053059577942,0.9058693647384644,jumping
1761226653604975900,-0.1966851861387491,3.512911090564728,10.785248364406824,-1.9720866680145264,-1.8187401294708248,0.6374449729919434,jumping
1761226653614989000,-0.7986872029364108,4.598441889470816,7.182564648458361,-1.993713140487671,-1.817183256149292,0.3905465006828308,jumping
1761226653625002000,-1.2838419788114726,5.508018155577778,4.780507598626613,-1.9424575567245483,-1.6296066045761108,0.1511622816324234,jumping
1761226653635015000,-1.5900880482569335,6.052912968274951,2.713783742645383,-1.8315073251724243,-1.3059827089309692,-0.0647601559758186,jumping
1761226653645028000,-1.4103614495731889,6.59841042304039,1.1031766379728911,-1.7028762102127075,-0.8957955837249756,-0.1903066635131836,jumping
1761226653655041000,-0.7768358750037848,7.263926003849506,0.2515495797485113,-1.5774892568588257,-0.4324849545955658,-0.2053849548101425,jumping
1761226653665054200,-0.1003678152866661,7.819072745969891,0.1605661172702908,-1.4760534763336182,-0.0142784807831048,-0.1320945620536804,jumping
1761226653675067000,0.3267342923313379,8.167953988179564,0.7481506093978881,-1.388068437576294,0.2549609839916229,-0.0474875196814537,jumping
1761226653685080000,0.4571558850981295,8.058065041962266,1.796362608256936,-1.2552576065063477,0.3336437344551086,-0.0306625068187713,jumping
1761226653695093000,0.3006983721904456,7.571727632173895,2.712772519776225,-1.0549333095550537,0.2754504680633545,-0.094864398241043,jumping
1761226653705106000,0.141220926939696,7.03907329236865,3.2480595461726187,-0.8189228773117065,0.1561146378517151,-0.1948779970407486,jumping
1761226653715118800,0.1236396775417029,6.853523248228431,3.4846491649374363,-0.5636159181594849,0.0302176810801029,-0.2870103120803833,jumping
1761226653725133000,0.1605572033114731,6.779964675542712,3.472543132080137,-0.2796996533870697,-0.0452415756881237,-0.3961739242076874,jumping
1761226653735146000,-0.0060493631668388,6.7289610490143295,3.244108178198337,0.0111596267670392,0.0021650874987244,-0.5042580962181091,jumping
1761226653745159000,0.050095864033699,6.654907970809936,2.8436276816546915,0.2502933740615845,0.0086912531405687,-0.5840504169464111,jumping
1761226653755172000,0.312073314294219,6.6844000227540725,3.1865877171218395,0.3373529016971588,-0.1277659237384796,-0.6133768558502197,jumping
1761226653765184800,0.8253491460211575,6.478440812313556,4.469851749914884,0.2736242711544037,-0.4362452328205108,-0.5720758438110352,jumping
1761226653775198000,1.4533023272857069,6.178243229252099,5.967071837121248,0.0962838307023048,-0.7773205637931824,-0.5112428665161133,jumping
1761226653785211100,1.7814577384613453,5.664051597854495,6.666131960135698,-0.1340871304273605,-1.0592923164367676,-0.4651897549629211,jumping
1761226653795224000,1.697863947843015,4.885988080751896,6.256843887758254,-0.3618864715099334,-1.3035210371017456,-0.4198371767997741,jumping
1761226653805237000,1.4747363065890966,4.194402239140868,5.18408313857615,-0.5023903250694275,-1.5853290557861328,-0.4097607433795929,jumping
1761226653815250000,0.7539066887065767,3.5544472160458565,3.32049349874258,-0.4551708996295929,-1.7761269807815552,-0.4437237679958343,jumping
1761226653825263000,-0.4995138483561575,2.68956232458055,0.4975286658883094,-0.2145850956439972,-1.727709174156189,-0.5554543733596802,jumping
1761226653835275800,-1.9171283377975223,1.7697510801851748,-3.0356986519962548,0.1713775247335434,-1.3256733417510986,-0.7759649157524109,jumping
1761226653845289000,-3.352954337364435,1.0533856021046637,-6.369644922029972,0.648045003414154,-0.5756107568740845,-1.0044691562652588,jumping
1761226653855302100,-4.93868565171659,0.988531729400158,-8.557108204066752,1.1444445848464966,0.2352538853883743,-1.2450995445251465,jumping
1761226653865315000,-5.461696549385786,0.6289893924444914,-9.60994669368267,1.537574052810669,0.8847053050994873,-1.4421199560165403,jumping
1761226653875328000,-5.126262233248353,-0.1942974142193794,-8.853283107483387,1.6934722661972046,1.2537052631378174,-1.527106761932373,jumping
1761226653885341000,-3.542685466581583,-1.6741753214806316,-6.623154403674602,1.5777891874313354,1.629196047782898,-1.476794958114624,jumping
1761226653895355000,-0.9832239783808588,-3.6428421233356,-4.337561879058182,1.17359721660614,2.032998561859131,-1.2065101861953735,jumping
1761226653905368000,2.31906443997696,-6.090270931288599,-2.188775533679128,0.4803766310214996,1.854664921760559,-0.6046423316001892,jumping
1761226653915381000,6.371800054237246,-8.803411115333438,0.8085103855535387,-0.2793779373168945,0.6249426603317261,0.1715969741344452,jumping
1761226653925394200,9.346274714463949,-12.077318803989886,3.5265757510408755,-0.714169442653656,-1.3080207109451294,0.8194000124931335,jumping
1761226653935406800,9.138238697749376,-15.01626330115199,2.140139513064921,-0.6391849517822266,-2.958287477493286,1.1629761457443235,jumping
1761226653945420000,4.876261344246566,-15.88597458986044,-3.864526433913409,-0.149969607591629,-3.734260320663452,1.2310010194778442,jumping
1761226653955433000,-0.4055972550354897,-15.421557919979094,-10.932131701022383,0.5537656545639038,-3.458970785140991,0.9194210171699524,jumping
1761226653965446000,-5.594639623454213,-13.882812228685616,-16.16866808041334,1.3251097202301023,-2.000221014022827,0.3962683379650116,jumping
1761226653975459000,-8.861157786381245,-12.367947763717174,-19.45149732667208,2.027446985244751,0.28550586104393,-0.2139079272747039,jumping
1761226653985472000,-9.328587082082032,-10.971293498587608,-20.373964054012298,2.52718448638916,2.43765640258789,-0.6574097871780396,jumping
1761226653995485200,-7.696570986416935,-8.590662098622321,-17.54636746970415,2.6224098205566406,3.687661647796631,-0.8230506777763367,jumping
1761226654005497900,-4.119709693989157,-6.526628212377428,-10.92081886436939,2.1283953189849854,3.908963203430176,-0.6913906335830688,jumping
1761226654015511000,0.0421509694438427,-4.553922948786616,-1.7362953853070735,1.209231734275818,3.693769931793213,-0.2787449955940246,jumping
1761226654025524000,4.038148139850796,-2.208887178337574,6.573116991829871,0.0837296918034553,3.174193382263184,0.2552889287471771,jumping
1761226654035537000,6.610075141870975,0.3348258288502693,12.4507780226171,-1.0076192617416382,2.2593343257904053,0.7497852444648743,jumping
1761226654045550000,7.406195709189772,2.195678152674436,15.849664090073109,-1.832911491394043,1.10608172416687,1.0887250900268557,jumping
1761226654055563000,6.456677893316745,3.3470319615781303,16.0064527346313,-2.247597932815552,0.0314846970140934,1.2339560985565186,jumping
1761226654065576200,4.097343840663135,3.9809921281725167,13.143224864971636,-2.2887954711914062,-0.7444672584533691,1.1877278089523315,jumping
1761226654075590000,1.3059887825593353,4.513179434987903,9.018658963122965,-2.0519051551818848,-1.263461709022522,0.9707164168357848,jumping
1761226654085603000,-0.9952166139915584,4.734592235147953,5.516055916082859,-1.631675124168396,-1.51503324508667,0.6652058362960815,jumping
1761226654095616000,-2.672751767294109,4.809647768393159,2.871719511412084,-1.2104636430740356,-1.6543408632278442,0.3908554911613464,jumping
1761226654105629000,-3.2983553166925903,5.190010775059461,1.7135551457107066,-0.8997921347618103,-1.681904435157776,0.1817227751016616,jumping
1761226654115642000,-3.0777924113601443,5.617800718811154,1.5930100731834769,-0.732309877872467,-1.5503748655319214,0.0894817933440208,jumping
1761226654125655000,-2.283862632083893,6.079986853161454,1.606281350427866,-0.6922550797462463,-1.2044708728790283,0.1308427155017852,jumping
1761226654135668000,-1.1471364834696054,6.705524643847346,1.6000415792554616,-0.7133254408836365,-0.6626054644584656,0.2703515887260437,jumping
1761226654145681000,-0.235102595077455,7.260564418461918,1.5219523774027823,-0.7727173566818237,-0.1131104752421379,0.4363791644573211,jumping
1761226654155694000,0.1768373069830238,7.509528073370456,1.8128519707649944,-0.7912665009498596,0.2697503566741943,0.5548844933509827,jumping
1761226654165707000,-0.0559247163176536,7.303442021679878,2.416343349337578,-0.6532136797904968,0.4578385651111603,0.529899537563324,jumping
1761226654175720000,-0.5508515291444956,6.664539137986302,2.60983295430541,-0.4010565280914306,0.3709225654602051,0.3860507607460022,jumping
1761226654185733000,-0.7234377545543015,6.114312316611409,2.915414276231825,-0.1271897256374359,0.1100166067481041,0.1877322047948837,jumping
1761226654195746000,-0.4036649717986583,5.881950836935639,3.591925590568781,0.0773703306913375,-0.2417507618665695,-0.0148829519748687,jumping
1761226654205759000,-0.0534900365166366,5.918198792880773,4.344762604217231,0.1758854538202285,-0.5439000725746155,-0.1791672855615615,jumping
1761226654215772000,0.2985303805015981,6.011967794424295,4.883285836055874,0.1765842735767364,-0.7319671511650085,-0.2927590906620025,jumping
1761226654225785000,0.7140813126660883,6.153704415801167,4.944606273937225,0.1291731595993042,-0.8482809066772461,-0.3428027331829071,jumping
1761226654235795000,1.2113055887803434,6.279429229053855,4.651772205381096,0.0629328936338424,-0.9450955986976624,-0.3252263963222503,jumping
1761226654245809200,1.7125136738337576,6.278121069064736,4.260973144896329,-0.027021313086152,-1.0072840452194214,-0.2351813465356826,jumping
1761226654255821800,2.062137551104277,6.202161864978074,3.696794078275561,-0.1462017595767974,-1.0367425680160522,-0.1014280766248703,jumping
1761226654265835000,2.197180520061403,5.895735616660118,2.9482781426966187,-0.219997689127922,-1.0086127519607544,0.0068482933565974,jumping
1761226654275848000,1.775976968962699,5.362720626848936,1.8088573481708763,-0.1824963837862014,-0.906655728816986,0.0400504544377327,jumping
1761226654285861000,0.8597488437511026,4.797980126953124,0.1571224065572023,-0.0167257096618413,-0.75782310962677,-0.0256803352385759,jumping
1761226654295873800,-0.3575979248896241,4.231704672574996,-1.4938096942409873,0.2613556981086731,-0.6129927039146423,-0.1826784759759903,jumping
1761226654305887000,-1.5396799034036694,3.667809975853562,-2.8098119212925434,0.6018887758255005,-0.3924450874328613,-0.3834307193756103,jumping
1761226654315900200,-2.2972138426966966,3.244916571971774,-3.783813897819817,0.9546633958816528,-0.0854388102889061,-0.5818402171134949,jumping
1761226654325912800,-2.5281483583092688,3.094378219980001,-4.265680884195864,1.2023265361785889,0.1905174255371093,-0.7369131445884705,jumping
1761226654335926000,-2.2694285946704444,3.076603493836522,-3.77486574447155,1.2649314403533936,0.2472020089626312,-0.7829477787017822,jumping
1761226654345939000,-1.6084586944669483,2.8799299981355664,-2.2147049247056243,1.1918818950653076,0.1525916159152984,-0.6959031820297241,jumping
1761226654355952000,-0.742015906035155,2.527137135440111,-0.9471423189133406,1.0636227130889893,0.0081755761057138,-0.5092943906784058,jumping
1761226654365964800,-0.1900781890891492,1.8564882833957672,-0.7174000818252563,1.0135679244995115,0.0970084816217422,-0.3432991206645965,jumping
1761226654375978000,-0.3437959017693996,0.406306426218152,-2.0607763457536694,1.0038050413131714,0.5513362884521484,-0.2562371790409088,jumping
1761226654385991200,-0.8298299446970224,-1.6645429852604865,-4.058650829653442,0.844511091709137,1.4824720621109009,-0.1907630711793899,jumping
1761226654396003800,-0.6170272981025278,-4.802731705394387,-5.015410579478741,0.3447769284248352,2.5739846229553223,-0.1245925799012184,jumping
1761226654406017000,0.5609875771030783,-8.868912638291716,-3.78679203684777,-0.5134520530700684,2.9971494674682617,0.0168037023395299,jumping
1761226654416030000,2.3521526167169213,-13.054085276794432,-0.3150067373976111,-1.4244216680526731,2.004075288772583,0.3004162311553955,jumping
1761226654426043100,4.962934542310237,-16.385916162109375,3.5034815834403035,-1.907578468322754,0.1543373167514801,0.5997114181518555,jumping
1761226654436057000,6.482655215138196,-18.319203607547283,2.862596001496911,-1.7507061958312988,-1.6619057655334473,0.9168922901153564,jumping
1761226654446070000,4.950837277281284,-17.24763002232313,-2.687139773608744,-1.0996536016464231,-2.9474215507507324,1.2079445123672483,jumping
1761226654456083000,1.8980019047841428,-14.771915615606307,-9.227652426692844,-0.1804979592561721,-3.295893907546997,1.3091366291046145,jumping
1761226654466095900,-2.2483353916287423,-12.64071139640808,-14.532242936134338,0.8835873603820801,-2.403930187225342,1.1422275304794312,jumping
1761226654476109000,-6.016058278608321,-10.991726045763492,-18.92273765621781,1.9860318899154663,-0.4568082690238952,0.7729359865188599,jumping
1761226654486122000,-8.502652975779771,-9.9115003675282,-21.727071438360213,2.9606189727783203,1.7036908864974976,0.3473503589630127,jumping
1761226654496135000,-9.224033651673793,-8.497421504867077,-20.523017135882377,3.646127939224243,3.236051559448242,0.1032519564032554,jumping
1761226654506148000,-7.3470625522196285,-6.477859797555208,-14.855361960577964,3.771169900894165,3.706767082214356,0.1023503690958023,jumping
1761226654516161000,-4.313500327730178,-4.213391601771116,-5.874797458049654,3.334867238998413,3.393385171890259,0.2796628475189209,jumping
1761226654526174000,-1.1025514918118715,-2.5098563302934167,3.4037130492210386,2.454427480697632,2.6816539764404297,0.5154945850372314,jumping
1761226654536187000,1.5005229281440375,-1.0574819315075874,10.849304949253796,1.3391891717910769,1.6471598148345947,0.7598047256469727,jumping
1761226654546200000,2.9980910981357094,0.1030845268994569,15.71549293551445,0.3332224488258362,0.6989855766296387,0.921425998210907,jumping
1761226654556213000,3.16556772544682,0.8839759609043598,16.53347988220453,-0.3634711503982544,0.0869195386767387,0.9884225726127625,jumping
1761226654566226000,2.2733219488471743,1.881097239473462,13.576820864653586,-0.8161689639091492,-0.1154733970761299,0.9104178547859192,jumping
1761226654576239000,1.004634576808661,2.7043898913562296,9.82093337689638,-1.040927767753601,0.0351563282310962,0.6949872970581055,jumping
1761226654586252000,-0.4464456905134022,3.2397166652411222,6.368836528256535,-1.0726687908172607,0.2492886036634445,0.4059906899929046,jumping
1761226654596265000,-1.3491023864902556,3.696933779007196,4.258202218878269,-1.1365572214126587,0.2095731496810913,0.1688170135021209,jumping
1761226654606278000,-1.2672585082791743,4.215409371334314,4.492866422538459,-1.264136791229248,-0.0421361587941646,-0.0098391817882657,jumping
1761226654616292000,-0.9556652325868606,4.563751684361696,5.503361269682645,-1.354705810546875,-0.2803932130336761,-0.2198158502578735,jumping
1761226654626305000,-1.0375462279379368,4.761249940448999,5.42837997071743,-1.382472276687622,-0.4327743053436279,-0.4390374422073364,jumping
1761226654636318000,-1.1266377391897142,5.17820694001913,4.672121165926754,-1.3752188682556152,-0.5119433999061584,-0.6310737729072571,jumping
1761226654646331100,-0.8640744518652558,5.666694221317767,3.975747505517304,-1.3610509634017944,-0.5039293169975281,-0.7811413407325745,jumping
1761226654656344000,-0.591002630008012,6.115021341663598,3.410417223034799,-1.3244599103927612,-0.3769801557064056,-0.9037314653396606,jumping
1761226654666357000,-0.4447271961577236,6.516954375103116,2.777332085709274,-1.2530462741851809,-0.1400856226682663,-1.0289806127548218,jumping
1761226654676370000,-0.3219074566967785,6.908210531705618,2.264020744277537,-1.163964867591858,0.1117114573717117,-1.1345877647399902,jumping
1761226654686383000,-0.1586481548197567,7.207077158424258,2.168271090310812,-1.09141206741333,0.3265225291252136,-1.214479684829712,jumping
1761226654696396000,0.0344552273094654,7.418831318879127,2.684676890626549,-1.031571388244629,0.3869696259498596,-1.2711448669433594,jumping
1761226654706409000,0.3406511740028858,7.589121834567189,3.5402360276028517,-0.9768184423446656,0.3035899102687835,-1.2639617919921875,jumping
1761226654716422100,0.7661477461203933,7.773183685976266,4.289012659944594,-0.9103240966796876,0.1749261915683746,-1.2118152379989624,jumping
1761226654726435000,1.118523479382321,7.782659954851865,4.581967140009999,-0.8551697731018066,-0.0226112194359302,-1.1303704977035522,jumping
1761226654736448000,1.2776128751635552,7.804725656187534,4.811539865750074,-0.7802579998970032,-0.2571936547756195,-1.0266482830047607,jumping
1761226654746461000,1.4940148614242672,7.672513819003105,4.696720769654214,-0.6616424322128296,-0.4386910796165466,-0.9146639108657836,jumping
1761226654756474000,1.7210244586780663,7.388568867084383,4.019737453891337,-0.547724723815918,-0.5520253777503967,-0.7789964079856873,jumping
1761226654766486800,1.760378417814523,7.237905427408218,3.25542335293889,-0.4440536201000213,-0.6174494028091431,-0.6375905275344849,jumping
1761226654776500000,1.531772637410462,6.948925403931737,2.6561148130089043,-0.3369202315807342,-0.6988638043403625,-0.5234522223472595,jumping
1761226654786513200,1.1940133123915642,6.300218919104338,2.036536807510257,-0.2215695828199386,-0.7712592482566833,-0.4386073052883148,jumping
1761226654796526000,0.7988320912998169,5.529172002765536,1.423930979111791,-0.1466929465532302,-0.9026183485984802,-0.3396716713905334,jumping
1761226654806540000,0.3646030544113368,4.886753219905495,0.867377000541985,-0.0397802554070949,-1.1432454586029053,-0.2386769503355026,jumping
1761226654816553200,-0.0548033110722899,4.247839230296015,0.1614548828035593,0.1754087507724762,-1.321628212928772,-0.1778285205364227,jumping
1761226654826566000,-0.5171808763414621,3.443156586337089,-1.6197627632915972,0.4847999811172485,-1.2550145387649536,-0.1655613332986831,jumping
1761226654836579000,-1.076156090708822,2.72443840765059,-3.7429631242543455,0.8206650614738464,-0.9312278032302856,-0.2095450311899185,jumping
1761226654846592000,-1.8200671628408132,2.233329545676708,-5.4298155564785,1.0950016975402832,-0.4331466853618622,-0.3137592077255249,jumping
1761226654856605000,-2.7209815451949835,1.4674550635397434,-6.212865629822016,1.219327092170715,0.0101588312536478,-0.4776962101459503,jumping
1761226654866617900,-3.4778245796144005,0.319516616037488,-5.984978080689907,1.1872801780700684,0.3997963964939117,-0.697688102722168,jumping
1761226654876631000,-3.980878146404028,-1.2754641726970672,-5.216650944703817,1.098865628242493,0.7890021800994873,-0.9226117730140686,jumping
1761226654886644000,-3.844101777783036,-2.711894567897916,-4.960348617470264,1.0669766664505005,1.2717820405960083,-1.0484081506729126,jumping
1761226654896657000,-2.7512840367391704,-3.5205998915016647,-5.442537090885639,1.1271902322769165,1.863798141479492,-0.9739747643470764,jumping
1761226654906670000,-0.8422266310639679,-3.904008257213235,-6.201635795277356,1.1536829471588137,2.2164101600646973,-0.7263808846473694,jumping
1761226654916683000,1.0825638388592749,-4.490205386635661,-5.7419151742577546,1.051957368850708,2.026251077651977,-0.4213594794273376,jumping
1761226654926696000,2.288222726989537,-5.711818726679683,-3.706678051169217,0.8485333919525146,1.5057882070541382,-0.1644405722618103,jumping
1761226654936708900,2.975376869763434,-7.516027956783771,-1.815347879233956,0.5493575930595398,0.855465829372406,-0.0057095172815024,jumping
1761226654946722000,2.764083604818582,-9.077271311089396,-0.8305842701956629,0.222993403673172,0.1593033373355865,0.1056822761893272,jumping
1761226654956735000,2.3311695960514247,-10.074564439094068,-0.907308613435924,-0.0155669720843434,-0.4568818211555481,0.2687524259090423,jumping
1761226654966748000,2.2144019962362944,-10.69776764935255,-2.341833759537339,-0.1004401370882988,-0.8384665846824646,0.434930682182312,jumping
1761226654976761000,1.7613466783247886,-10.93697271131277,-4.671717553561925,-0.0336339436471462,-0.8087451457977295,0.5633147954940796,jumping
1761226654986775000,0.9491549739100038,-10.815683250159024,-7.098360763117671,0.0916763916611671,-0.396925538778305,0.6475633978843689,jumping
1761226654996788000,0.4560448185836896,-10.486288798707722,-8.800312564796208,0.2214668840169906,0.2853968441486358,0.7418526411056519,jumping
1761226655006801000,0.6105342828214169,-10.029542225062846,-9.519508297866585,0.263374924659729,0.9910431504249572,0.982035756111145,jumping
1761226655016814000,1.3841075027674437,-8.887285330328345,-8.761007559368014,0.2082344442605972,1.4544051885604858,1.3438082933425903,jumping
1761226655026827000,2.507571141965687,-7.919142308962344,-6.764250973582268,0.1579702049493789,1.6199920177459717,1.6967649459838867,jumping
1761226655036840000,2.5778236588433385,-7.267510292077064,-4.507003668962419,0.2208911031484604,1.645541071891785,1.9647701978683472,jumping
1761226655046853000,1.8798826029866933,-6.729901544734835,-2.821617509898543,0.3832472562789917,1.5796154737472534,2.0293736457824707,jumping
1761226655056866000,0.6552117750681936,-6.11199760992825,-1.3808552229732274,0.5281362533569336,1.363416314125061,1.8777202367782595,jumping
1761226655066879000,-0.5385952010963112,-5.770474329265952,0.6451043686822057,0.5494173169136047,1.0407904386520386,1.5112489461898804,jumping
1761226655076892000,-1.4449324122168123,-5.518778034523129,2.9448510908573864,0.4025453329086303,0.712002158164978,0.9843050241470336,jumping
1761226655086905000,-2.124620164632797,-4.988915371263027,5.184364293605089,0.0821390002965927,0.4406615793704986,0.4163675904273987,jumping
1761226655096918000,-2.3531442581027746,-3.8855934796005487,6.951729355436563,-0.3738226592540741,0.2499337196350097,-0.07090725004673,jumping
1761226655106931000,-2.01540531828478,-2.1396651735514403,8.168648400184512,-0.8616673350334167,0.1957579106092453,-0.4480110704898834,jumping
1761226655116944100,-1.3926517514899373,-0.0590747047811746,8.480544019824267,-1.2670111656188965,0.2131409049034118,-0.7018848657608032,jumping
1761226655126957000,-0.6635261605575681,2.0340449906945226,7.962188839006424,-1.573960304260254,0.2667911648750305,-0.8247223496437073,jumping
1761226655136970000,-0.0646357729744166,3.932412513920665,7.137436635965108,-1.763044834136963,0.3583248257637024,-0.8583828210830688,jumping
1761226655146983000,0.3005406243454664,5.437185792985559,6.259853006446361,-1.8171559572219849,0.4305866658687591,-0.8493502140045166,jumping
1761226655156996000,0.2526692314282059,6.412760425657034,5.319866989028453,-1.7210627794265747,0.4535226225852966,-0.8628977537155151,jumping
1761226655167009000,0.0322257146917283,6.9690335414588445,4.39191189340502,-1.5111324787139893,0.4179269969463348,-0.8996549844741821,jumping
1761226655177023000,-0.0737934043549001,7.392316821441054,3.7178137776896354,-1.2413047552108765,0.3828167021274566,-0.9197046160697936,jumping
1761226655187036200,-0.0426690019685775,7.753516862475871,3.301313289715349,-0.9785725474357604,0.3536764681339264,-0.8602138161659241,jumping
1761226655197048800,0.2895349904781207,8.155635189354419,3.108174690142273,-0.726442277431488,0.315293937921524,-0.6835713982582092,jumping
1761226655207062000,0.6280766615137457,8.605056534677743,3.1949282599657773,-0.462376058101654,0.2999708950519562,-0.4347237646579742,jumping
1761226655217075200,0.6328988209731876,8.898381309360266,3.105267862784862,-0.1588606536388397,0.2552830576896667,-0.159523606300354,jumping
1761226655227088000,0.2571981070294976,9.031792000940442,3.014849340713024,0.1944253295660019,0.2113602757453918,0.0620210021734237,jumping
1761226655237100800,-0.1452265458518639,8.887508033168315,2.908279309785366,0.5323570370674133,0.0997448042035102,0.1801577657461166,jumping
1761226655247113700,-0.5035187366159632,8.54530787615776,3.198291306658089,0.7683762311935425,-0.1634097099304199,0.2126380354166031,jumping
1761226655257127000,-0.644648076282069,8.107192937746644,4.204076953198015,0.8786361217498779,-0.4654627740383148,0.1563907414674759,jumping
1761226655267139600,-0.773169169189781,7.534000251325964,5.1817316070139405,0.8563266396522522,-0.6570003628730774,0.0427506528794765,jumping
1761226655277152800,-0.8442576985001563,7.096641684240103,5.61303394280076,0.7096037864685059,-0.7047170400619507,-0.0543934740126132,jumping
1761226655287165700,-0.6522203381672501,7.107343110996484,5.823695047321915,0.4713473916053772,-0.6714580059051514,-0.1233358606696128,jumping
1761226655297178600,-0.3957141223920509,7.290145317733287,5.825691189575195,0.1685262620449066,-0.5379822254180908,-0.2002034783363342,jumping
1761226655307191800,-0.3571084974048659,7.172157236212492,5.628866302704811,-0.1884082555770874,-0.3978620171546936,-0.2605602145195007,jumping
1761226655317204700,-0.4160997982189059,6.828165519610047,5.344255580353736,-0.5500980019569397,-0.312201976776123,-0.2755197286605835,jumping
1761226655327218000,-0.31395277136527,6.531949115139246,4.83120376664102,-0.8042025566101074,-0.343511015176773,-0.2638562321662903,jumping
1761226655337230600,-0.3351144730659202,6.154212365323305,3.701175069838762,-0.8767006993293762,-0.4398833513259887,-0.2294255495071411,jumping
1761226655347243800,-0.3667809464396909,5.630797563028335,1.757630434280634,-0.7594090104103088,-0.4997925758361816,-0.1851715594530105,jumping
1761226655357256700,-0.5628852639505639,4.997250068888068,-0.5472410835623741,-0.4916057586669922,-0.4098115265369415,-0.1573878675699234,jumping
1761226655367269600,-1.0762513677768408,4.206354542741179,-2.735635508969426,-0.1286243647336959,-0.2322106659412384,-0.1750245094299316,jumping
1761226655377283800,-1.900939127279818,3.398869116321206,-4.264292352446914,0.2794888019561767,-0.036375381052494,-0.2422472238540649,jumping
1761226655387296800,-2.4241566534370182,2.7012200291484594,-5.035083248198032,0.6535571217536926,0.1652586311101913,-0.3069486320018768,jumping
1761226655397309700,-2.245418627399206,2.014867996537685,-5.29829579321146,0.9421316385269164,0.3425394296646118,-0.3449026644229889,jumping
1761226655407322600,-1.52474975303635,1.128474453097582,-5.202662166839838,1.1445196866989136,0.6584786772727966,-0.3764177560806274,jumping
1761226655417335800,-0.7507770854439586,0.2685796250045299,-5.154128145295381,1.2050093412399292,1.1931657791137695,-0.3719974458217621,jumping
1761226655427348700,-0.0864728349196724,-0.8033972803235053,-4.883029230946302,1.0270825624465942,1.6357249021530151,-0.3106993734836578,jumping
1761226655437361700,0.7067014315478504,-2.2782266720235347,-3.410966965872049,0.5877193808555603,1.8200523853302,-0.1862192153930664,jumping
1761226655447374800,1.6830148998878895,-4.649318090227246,-1.29757780482769,-0.0168332047760486,1.6806235313415527,-0.0074698277749121,jumping
1761226655457387800,3.301213336472213,-7.446492648264765,0.3997486751377582,-0.6086150407791138,1.2746073007583618,0.2084909528493881,jumping
1761226655467400700,4.92915443778336,-9.781235572758316,1.0841741236001252,-1.056214690208435,0.7354061603546143,0.3821792602539062,jumping
1761226655477413600,5.591397865054011,-11.435689125680923,0.4178612549334764,-1.3645682334899902,0.1462712585926056,0.5073323845863342,jumping
1761226655487426800,5.229872829848528,-12.165168936878445,-0.967389572650194,-1.6057323217391968,-0.4822669625282287,0.6194940805435181,jumping
1761226655497439700,4.350453217074275,-12.304439460402726,-2.333351762396097,-1.8009910583496094,-1.1211323738098145,0.7016081213951111,jumping
1761226655507452700,2.832726056151092,-12.204326058268546,-3.747238901877403,-1.9149718284606931,-1.649577498435974,0.7419512271881104,jumping
1761226655517465900,1.0285074736967683,-11.906381222569944,-5.839917867848277,-1.8912776708602903,-1.6165568828582764,0.6922092437744141,jumping
1761226655527478800,-0.594960098929517,-11.24201364275217,-8.619489549177885,-1.607266545295715,-0.82118159532547,0.5288935899734497,jumping
1761226655537491700,-1.9833812636449928,-10.204629911899566,-11.45792667645216,-1.1293655633926392,0.4227774441242218,0.360221803188324,jumping
1761226655547504600,-2.540954940651357,-9.268712166833875,-13.064655770647525,-0.6396961212158203,1.558522343635559,0.2202230840921402,jumping
1761226655557517800,-1.9788645168729124,-8.610218447485565,-11.993933249294756,-0.2970577478408813,2.3384177684783936,0.1327334493398666,jumping
1761226655567530800,-1.0034057656660675,-8.280457500809431,-8.657672272577882,-0.1534478664398193,2.7627274990081787,0.0711563751101493,jumping
1761226655577543700,-0.1363294468373991,-7.509245164775848,-4.488843158371746,-0.0983220264315605,2.931077003479004,0.0007141649257391,jumping
1761226655587558000,0.2282482356706634,-6.113266606950759,-0.6796738700211048,0.0006862201262265,2.8941099643707275,-0.0530662611126899,jumping
1761226655597570600,0.3107061906594783,-3.981783570811152,2.5696102495104074,-0.0404713377356529,2.474147081375122,-0.0081464573740959,jumping
1761226655607583700,0.7521697819113731,-1.3524696709662676,6.35109219725132,-0.3847594559192657,1.586320877075195,0.1851718425750732,jumping
1761226655617597000,2.0216168862760067,0.7211281624376773,11.00411206460595,-1.0872234106063845,0.4398244023323059,0.426786333322525,jumping
1761226655627609900,3.1042496256530283,1.8677789082169527,15.11913681564927,-1.9020878076553345,-0.6118049025535583,0.6224726438522339,jumping
1761226655637622800,3.050375412124396,2.302569670641422,16.575535063123702,-2.7698256969451904,-1.828319311141968,0.7759497761726379,jumping
1761226655647635700,1.5892252939477562,2.9432378104418517,16.021808124673367,-3.490284204483032,-1.5078353881835938,0.2105651497840881,jumping
1761226655657649000,-6.433906089538335,0.8549076873302459,8.534586575657128,-4.399014949798584,-0.2632928788661957,-0.369490772485733,jumping
1761226655667661600,-14.753117391633989,-3.0405870085597035,-0.0486930114984512,-5.0416107177734375,0.7162676453590393,-0.6354007124900818,jumping
1761226655677674800,-12.156831316643952,-5.041090379658341,-4.695051082876325,-5.189477920532227,0.2794886827468872,-0.8242459893226624,jumping
1761226655687687700,-3.1885292065784334,-0.7364122408092022,6.593947013890743,-5.066035270690918,-0.3533373773097992,-1.0506099462509155,jumping
1761226655697700900,-2.1357449313677845,3.372700071319937,3.478654600697756,-4.6358723640441895,-0.4061020612716675,-1.1061885356903076,jumping
1761226655707713800,-1.427203132650256,2.6753514283984896,0.7764268558114766,-3.977313756942749,-0.0671156048774719,-0.9839650988578796,jumping
1761226655717726700,-0.334348493662104,2.8969729028731583,-3.2627392289102075,-3.1927592754364014,-0.1107744053006172,-0.8869221806526184,jumping
1761226655727740000,-0.1283857030250132,3.344915992337465,-3.9548201605618,-2.186733722686768,-0.3497138619422912,-0.7814953923225403,jumping
1761226655737752600,0.1527276421969756,3.560671789649129,-2.3742566042363644,-1.1153041124343872,-0.9454475045204164,-0.6460843086242676,jumping
1761226655747765800,0.4704760795181616,3.868586815220117,-0.5963982054412365,0.0202408302575349,-1.3557640314102173,-0.4827842116355896,jumping
1761226655757778700,1.4208932188510894,4.177019727185368,-0.0679635291576385,1.0046132802963257,-1.3949273824691772,-0.3517926633358001,jumping
1761226655767791900,1.702702035523951,3.509805525764823,-0.1854044981896877,1.7183572053909302,-1.0299816131591797,-0.3510661423206329,jumping
1761226655777804800,1.8908619699016207,2.565659466058016,-0.1986918497860431,2.059760093688965,-0.2035468369722366,-0.5099175572395325,jumping
1761226655787817700,-0.1722266348497942,2.9341701223671435,-0.90329674744606,1.881364107131958,0.3316094875335693,-0.718667209148407,jumping
1761226655797831000,-3.005029665227234,2.643094003394246,0.3712994102448225,1.350792646408081,0.5123081207275391,-0.8443005084991455,jumping
1761226655807844600,-3.0120506499052047,3.2073435049027204,3.424213985458016,0.7642278075218201,0.2654783725738525,-0.9279026389122008,jumping
1761226655817857800,-2.249843896495551,4.035114178982377,4.694461300289631,0.478474348783493,-0.0369632467627525,-0.9339698553085328,jumping
1761226655827870700,-2.2627701596945524,3.616114275407791,4.162836303532123,0.4587269425392151,-0.402276873588562,-0.8618894219398499,jumping
1761226655837883600,-0.8339747894167899,3.225369575458765,3.9071863027274607,0.516484797000885,-0.778558075428009,-0.7559414505958557,jumping
1761226655847896800,0.5530071728084236,3.161526341101527,4.108519606932997,0.5302490592002869,-1.1356090307235718,-0.6958143711090088,jumping
1761226655857909800,1.0417844500295816,3.095869335320592,4.690916175028682,0.4379068911075592,-1.227336287498474,-0.6979803442955017,jumping
1761226655867922700,1.3115448092512785,3.091618107616901,4.82014402796626,0.208413228392601,-1.2223199605941772,-0.6610353589057922,jumping
1761226655877935600,1.899459994637966,2.8721897592723367,4.798804302817583,-0.1291496306657791,-1.078881025314331,-0.608605682849884,jumping
1761226655887948800,1.700410855846852,3.012316607365012,4.29104299672842,-0.4469530880451202,-0.8066478371620178,-0.5781232714653015,jumping
1761226655897961700,0.3880215585954487,3.2478169695883987,2.826075658351183,-0.6327897906303406,-0.5038256645202637,-0.4750839173793793,jumping
1761226655907974700,-1.1279640924226493,3.9031910956114526,1.212759002459049,-0.5524439215660095,-0.2372554689645767,-0.3834087550640106,jumping
1761226655917987800,-2.398069733761251,4.116321805116534,-0.5219365464359521,-0.2937811911106109,0.0444497168064117,-0.433517724275589,jumping
1761226655928000800,-3.0882930548474192,2.844865699017048,-1.866651365491748,0.0630591362714767,0.3682070970535278,-0.5112920999526978,jumping
1761226655938013700,-2.126537542561441,1.3747235883504152,-3.5131028137445446,0.4901585280895233,0.4831078350543976,-0.4447431564331054,jumping
1761226655948026600,0.2620848196251317,0.9030670303434132,-4.876782445511221,0.886715292930603,0.2572258710861206,-0.1847303062677383,jumping
1761226655958039800,3.13852482022047,1.6182663872539995,-5.2430292485415935,1.1266595125198364,-0.0621076710522174,0.1217449456453323,jumping
1761226655968053000,4.535297158771753,2.3771494030684237,-5.6439370305866,1.1335399150848389,-0.4136177599430084,0.2770237624645233,jumping
1761226655978065700,3.398790790387988,1.7162153048306703,-5.079741889613866,0.9004270434379578,-0.5132899880409241,0.4391610026359558,jumping
1761226655988078800,2.0388716801986098,1.4533072957217692,-4.355666567808389,0.4444377422332763,-0.5668332576751709,0.6315221190452576,jumping
1761226655998091800,1.3349584180645644,1.944486884844303,-2.869142062139511,-0.0573955439031124,-0.4485824704170227,0.6503546833992004,jumping
1761226656008105700,-0.3415111518330871,1.7903426173150538,-0.5891717613190413,-0.3743440210819244,-0.073311723768711,0.685896098613739,jumping
1761226656018119000,-0.2262048202095553,1.1445113956630228,-1.2310001770704984,-0.5197787284851074,0.2522463798522949,0.6931758522987366,jumping
1761226656028131800,0.1836488501613959,1.312713999161124,-0.880695039537549,-0.4983621835708618,0.6031472682952881,0.6863550543785095,jumping
1761226656038144800,0.0752652396062854,0.97871760687232,-1.3790063802361487,-0.4774132370948791,0.8360710740089417,0.5218560695648193,jumping
1761226656048157700,-1.2452237866036593,-0.4392845667123794,-2.223034946155548,-0.4189296960830688,0.7147500514984131,0.3926592767238617,jumping
1761226656058171000,-1.263646309131384,-1.491027662307024,-2.3943811083763835,-0.2836325764656067,0.3997313678264618,0.3056812584400177,jumping
1761226656068183600,0.089745006724447,-2.215828960299492,-2.950079639160633,-0.1407807171344757,-0.0070328060537576,0.2072350084781646,jumping
1761226656078196700,0.8507404115829617,-3.4192847123622894,-3.642630526411533,-0.0472390465438365,-0.3799603283405304,0.1295439451932907,jumping
1761226656088209700,0.9947189666677264,-3.8802749149262894,-3.3447721999526023,-0.0447056703269481,-0.5041802525520325,0.0417363420128822,jumping
1761226656098222800,0.6746535576410592,-3.9878257735848415,-2.5803917557656764,-0.106959730386734,-0.4487710297107696,-0.0358492583036422,jumping
1761226656108235800,0.5090479118335992,-4.270451459598541,-2.18714939378202,-0.2406676262617111,-0.4145950973033905,-0.088193878531456,jumping
1761226656118248700,0.6282406199038029,-4.75858101350069,-1.7667659268945457,-0.4337276220321655,-0.3143270909786224,-0.1513648629188537,jumping
1761226656128262000,0.4334137749828398,-5.394586422187089,-1.5843068345069884,-0.6766470074653625,-0.163580521941185,-0.2741162180900574,jumping
1761226656138274600,0.0232382522463798,-5.497728232231736,-1.8248235635876653,-0.8187820315361023,-0.0280349422246217,-0.3365266025066376,jumping
1761226656148287700,-0.283865182947088,-5.046902280807495,-2.367710543593764,-0.8177861571311951,0.1073112040758133,-0.2899933159351349,jumping
1761226656158300700,0.3141853014795109,-4.274540774738789,-3.412987658044696,-0.6427618861198425,0.2618784010410309,-0.1632484346628189,jumping
1761226656168313900,0.9306105055030436,-3.821747907155752,-4.363151955127716,-0.3403066992759704,0.480602353811264,-0.0213405080139637,jumping
1761226656178326800,0.8860317243903875,-3.347124900558591,-4.871726331165433,-0.026912298053503,0.7369827032089233,0.0459866002202034,jumping
1761226656188339700,0.7428929811306297,-2.8871079269409177,-4.8627106655389065,0.2151086032390594,0.9038921594619752,0.0820712447166442,jumping
1761226656198353000,0.4881185941167175,-2.048214385822415,-4.132475067538023,0.3630770146846771,0.9349701404571532,0.0386646538972854,jumping
1761226656208365600,0.0330798016372602,-1.1265841093063351,-3.031448593336344,0.5044224858283997,0.8867760896682739,-0.0635823085904121,jumping
1761226656218378800,-0.4042538045372814,-0.3422866662502288,-2.4114427178144453,0.6570282578468323,0.7647470831871033,-0.1780857145786285,jumping
1761226656228391700,-0.6739768274232745,0.3292074044466018,-1.966815036508441,0.7930871844291687,0.591900646686554,-0.2609002292156219,jumping
1761226656238406000,-0.7710874675448983,0.7828554275542497,-1.1960738251179457,0.8555052876472473,0.3666819334030151,-0.2974635660648346,jumping
1761226656248418800,-0.6431524308968335,1.2652969989478586,-0.0994406174391508,0.8485602736473083,0.0886572673916816,-0.2850561439990997,jumping
1761226656258432000,-0.3385100703209638,1.8137252464681863,1.246338615977764,0.7956570982933044,-0.1652351915836334,-0.2304610759019851,jumping
1761226656268445000,-0.0559098110094666,2.2182225774377584,2.2982389479607344,0.7254458665847778,-0.3532561957836151,-0.1366477459669113,jumping
1761226656278457900,0.1362817535044625,2.516214174887538,2.8246558546811342,0.6853660941123962,-0.4993223249912262,-0.047986589372158,jumping
1761226656288471000,0.2294951852581463,2.8091759614765643,2.938574494805932,0.6899343132972717,-0.6194692850112915,0.0254106242209672,jumping
1761226656298484000,0.1546847493478096,3.1500930929392577,2.9533892021000385,0.7341755032539368,-0.6625254154205322,0.0729174241423606,jumping
1761226656308497000,0.0744228248322382,3.5523411836773158,2.916218286091089,0.7946868538856506,-0.6318792104721069,0.0951474532485008,jumping
1761226656318509800,0.0168650000205729,3.83717519339025,2.928590860930085,0.8540899753570557,-0.5949712991714478,0.0986550971865654,jumping
1761226656328523000,0.0232114007720723,4.028098162740469,2.9865824466496704,0.923972189426422,-0.5664358139038086,0.1067302972078323,jumping
1761226656338536000,0.21960737643959,4.32030650061369,3.165935389715433,0.989435076713562,-0.5374952554702759,0.1142542660236358,jumping
1761226656348548900,0.5152162982702255,4.50190050060451,3.3358366138249638,1.0216395854949951,-0.5075516700744629,0.12916000187397,jumping
1761226656358562000,0.6432349215485155,4.382846835678816,3.584420329505205,0.9967310428619384,-0.4495003521442413,0.127086728811264,jumping
1761226656368575000,0.5478990360144526,4.157411940395832,3.817710029941797,0.9310846328735352,-0.3777046799659729,0.1124062165617942,jumping
1761226656378588000,0.2423305005043745,3.880463715496659,3.958395096439123,0.8742240071296692,-0.2263526916503906,0.08960822224617,jumping
1761226656388600800,0.0789491705497261,3.664648296952248,3.584511514919996,0.8716777563095093,-0.0617446787655353,0.0847352594137191,jumping
1761226656398614000,0.0003760393713135,3.423921724513173,2.9964848319828508,0.9211472868919371,0.0637599825859069,0.1071779876947403,jumping
1761226656408626700,0.2670284865723922,3.0572827072948217,2.6237048277914523,0.987003207206726,0.1481908857822418,0.1474715620279312,jumping
1761226656418640000,0.6555323853246867,2.726823256960511,2.416736148047447,1.0145817995071411,0.2307901531457901,0.1937647610902786,jumping
1761226656428653000,0.7060673714280128,2.384570492979884,2.525473586142063,0.9642425775527954,0.3215514123439789,0.2200160175561905,jumping
1761226656438666000,0.4250763008788227,1.935369512408972,2.6791192564994093,0.855040967464447,0.4116458892822265,0.2203941941261291,jumping
1761226656448679000,0.0586235452138818,1.4074626593917607,2.6054911257088182,0.7196369171142578,0.4803804755210876,0.2062227129936218,jumping
1761226656458691800,-0.2428765535471961,1.105363042101264,2.273995902585983,0.6416376829147339,0.4688255488872528,0.1867355704307556,jumping
1761226656468705000,-0.2514236335475929,0.9584797054857016,1.734330807235837,0.6099984645843506,0.3273040056228637,0.1786329895257949,jumping
1761226656478719000,0.0847978691784664,0.5454641370177269,1.2922341057121751,0.6047970056533813,0.1957803219556808,0.1766087114810943,jumping
1761226656488732000,0.3511848795095458,-0.5373188244849443,1.1218857223570349,0.5601250529289246,0.2059360742568969,0.1823317259550094,jumping
1761226656498745000,0.3981930431935936,-1.9271037883669135,1.2995599185556173,0.3755591809749603,0.3093692362308502,0.1875350177288055,jumping
1761226656508757800,-0.0740384194913785,-3.4742087272047995,2.425986206951737,-0.0260482765734195,0.5120940804481506,0.2092564105987548,jumping
1761226656518771000,-0.3655202057888731,-4.079818997627497,3.6786037570685135,-0.5627708435058594,0.6688432097434998,0.207227349281311,jumping
1761226656528784000,-0.4188184460604563,-3.1550667896986004,4.445258575928211,-1.0891783237457275,0.7992243766784668,0.1710429638624191,jumping
1761226656538796800,-0.7536653542313725,-2.2144822218656537,4.284443160071969,-1.5214322805404663,0.8544051051139832,0.1464494615793228,jumping
1761226656548810000,-0.9262372588548808,-1.910689244660735,3.1119255671083925,-1.8248083591461184,0.7254951596260071,0.0908731147646904,jumping
1761226656558823000,-0.918250570949912,-1.4279665182381869,1.6440741977274418,-1.854904532432556,0.4016867578029632,0.0370556898415088,jumping
1761226656568836000,-1.1692342604439705,-0.4456950182765722,-0.2193073523133993,-1.6065082550048828,0.012573879212141,-0.0928378626704216,jumping
1761226656578848800,-1.5455933652311562,0.3018663930565118,-2.594868609407544,-1.128662347793579,-0.2768946886062622,-0.2612468302249908,jumping
1761226656588862000,-1.7901441721335052,0.5476332977503537,-4.846157590144872,-0.4944560527801513,-0.3441918790340423,-0.3853190541267395,jumping
1761226656598875000,-1.493976282979548,0.5769418098211289,-6.315702319440245,0.1549025177955627,-0.3497354984283447,-0.4270097911357879,jumping
1761226656608887800,-0.9525080837301908,0.4133838172584771,-6.384836645942926,0.6671231389045715,-0.3215755820274353,-0.4044539332389831,jumping
1761226656618901000,-0.3752972111767158,0.1543669703692197,-5.084247968861461,0.9492701292037964,-0.2237856388092041,-0.3305229842662811,jumping
1761226656628914000,0.0864970103797037,0.0291916076928377,-3.389362452307344,1.0020527839660645,-0.0655596554279327,-0.2609871327877044,jumping
1761226656638927000,0.1970916480477899,-0.2068266409248113,-1.5406033018589018,0.9080714583396912,0.1430808901786804,-0.1774360537528991,jumping
1761226656648939800,0.28939404763747,-0.4585276118427515,0.1233966625660657,0.7304866909980774,0.3847866654396057,-0.0601097419857978,jumping
1761226656658953000,0.479685989075154,-1.0347416919112205,1.3611270246744156,0.5258834958076477,0.6032651662826538,0.0931538417935371,jumping
1761226656668966000,0.7000774833634495,-1.7099445539981126,2.1010364599496123,0.3063007593154907,0.6944794654846191,0.23122538626194,jumping
1761226656678978800,0.7473148892261088,-1.9577362425178289,2.571293088030815,0.0568373762071132,0.632623553276062,0.3105316460132599,jumping
1761226656688992000,0.3566008766762912,-1.7133447178304195,2.9425790542721746,-0.1321994811296463,0.4551093876361847,0.289450854063034,jumping
1761226656699005000,-0.2613786623834632,-1.264982526171207,2.645951146391034,-0.2388966232538223,0.1720600873231887,0.1882525831460952,jumping
1761226656709019000,-0.6764750009145587,-0.9910112712562084,1.921286041998863,-0.2938526272773742,-0.1515763998031616,0.0746858865022659,jumping
1761226656719031800,-0.7867337302923202,-0.5862631803959608,1.184258299639821,-0.30324187874794,-0.4206416606903076,-0.0277880225330591,jumping
1761226656729045000,-0.7696518087185918,-0.0970201122939586,0.5108534268856049,-0.2518467009067535,-0.6196151375770569,-0.1044052317738533,jumping
1761226656739058000,-0.6432415704850107,0.3026023061156273,-0.0628928017646074,-0.1882320344448089,-0.7297027707099915,-0.1254814863204956,jumping
1761226656749070800,-0.4074715244747698,0.706492318841815,-0.2898188123881817,-0.1326811611652374,-0.7065702676773071,-0.0923941060900688,jumping
1761226656759084000,-0.0926173655566759,1.0548930840581654,-0.4109767561167478,-0.09291323274374,-0.6348329782485962,-0.0301685500890016,jumping
1761226656769097000,0.08524997859383,1.2057663670927286,-0.4868102879971265,0.0535283982753753,-0.4637759029865265,0.0321284085512161,jumping
1761226656779110000,-0.0691811750188237,1.1983622283160686,-0.8583996210992336,0.2157290279865265,-0.2843278646469116,0.0340370945632457,jumping
1761226656789122800,-0.4737768015639856,1.0149930353462695,-1.1858423539608716,0.2837077975273132,-0.2002277374267578,0.0159806869924068,jumping
1761226656799136000,-0.7755594253271818,0.8569850781261921,-0.6358873352646828,0.2455593645572662,-0.2524912059307098,-0.0284653417766094,jumping
1761226656809149000,-0.8631159820966422,0.7437573428750037,0.0352624520391225,0.1419470310211181,-0.400674045085907,-0.0956891328096389,jumping
1761226656819161900,-0.8018897253047674,0.4649000694841146,0.5967448269218206,0.0596433691680431,-0.5411698818206787,-0.1737663596868515,jumping
1761226656829175000,-0.704884591384232,0.2743225525707006,0.6929255657821893,0.0215549282729625,-0.5464829206466675,-0.2548191249370575,jumping
1761226656839188000,-0.8495259212266654,0.051151510566473,0.6024380701273679,-0.012973753735423,-0.4528463780879974,-0.3525267541408539,jumping
1761226656849201000,-0.9687773006815464,-0.1333762047886848,0.4973907187223434,-0.0886494293808937,-0.4276648759841919,-0.4133413434028625,jumping
