timestamp,acc_x,acc_y,acc_z,gyr_x,gyr_y,gyr_z,activity
1761226567073523200,0.2278911110623739,-0.0702466716587543,-0.2087982332587242,0.4058973491191864,-0.1264000385999679,-0.1343802511692047,jumping
1761226567083537200,0.1722428370659239,-0.1631219392329454,0.1397170982480049,0.3026143610477447,-0.0238848440349102,-0.1607820391654968,jumping
1761226567093550000,0.3730422718567773,-0.1691770014882087,0.6199456697672605,0.1460213959217071,-0.035360187292099,-0.1938968896865844,jumping
1761226567103564300,0.6570053804866969,-0.2333715335011482,1.1919026769131422,-0.0609403178095817,-0.1455343663692474,-0.2107187509536743,jumping
1761226567113577200,0.8995334493897855,-0.3796440447419881,1.63456578014791,-0.304254800081253,-0.2258240580558776,-0.1803618222475052,jumping
1761226567123590100,1.1485407973095774,-0.4072843313395977,1.8056342944711443,-0.5256913304328918,-0.2425295263528823,-0.1033285558223724,jumping
1761226567133604400,1.4078338307917118,-0.3330465442180633,1.5250743088155985,-0.63929682970047,-0.1975146383047104,0.0278779510408639,jumping
1761226567143617300,1.540995954438299,-0.1369160693526268,0.5836152962356805,-0.6477238535881042,-0.106496587395668,0.1314719915390014,jumping
1761226567153629400,1.2758658853657543,0.2247720474600791,-0.3657803545624017,-0.5708187222480774,-0.0478892587125301,0.173569306731224,jumping
1761226567163643600,0.7852552552375942,0.4974000710725784,-0.8329758415073156,-0.4043179154396057,-0.0454540625214576,0.1949046999216079,jumping
1761226567173656600,0.5185286376886069,0.5299082559674978,-1.3994342512369156,-0.1901536881923675,-0.0499324724078178,0.2202446311712265,jumping
1761226567183669500,0.4297043625382706,0.6072837565928697,-1.8559136983782047,0.034117754548788,-0.0652016997337341,0.2439808547496795,jumping
1761226567193683700,0.3114377928696573,0.646506344434619,-1.961523359841108,0.2085231989622116,-0.1051163747906684,0.2444269061088562,jumping
1761226567203696400,0.0866670879832934,0.4509411022365093,-1.8086890058666467,0.380063533782959,-0.1811613291501999,0.22390778362751,jumping
1761226567213710600,-0.073500695885485,0.13582827411592,-1.5869938816338776,0.5474961996078491,-0.2840820252895355,0.1705347001552581,jumping
1761226567223723800,-0.1146854049799032,-0.0545943444967269,-1.2818477362543343,0.669519305229187,-0.4492278397083282,0.1097951829433441,jumping
1761226567233736400,-0.035323303964443,-0.2397416530549526,-0.6814712748318911,0.7144033312797546,-0.6576111316680908,0.0906872525811195,jumping
1761226567243750700,0.1671831242572516,-0.3518517824530601,-0.0513180993050336,0.6959446668624878,-0.8738830089569092,0.1126378178596496,jumping
1761226567253763600,0.3613301702205092,-0.3766980544179678,0.3997872535824775,0.6064059138298035,-1.0386912822723389,0.1331242471933365,jumping
1761226567263776500,0.3071584350500255,-0.4574328023433685,0.641549014288187,0.4611046612262726,-1.0741674900054932,0.1273371875286102,jumping
1761226567273790700,0.1322624896594323,-0.7435375626444816,0.459757445898652,0.2919913232326507,-0.9080520272254944,0.0887318477034568,jumping
1761226567283803600,-0.1123249411925673,-1.0576789153844115,-0.0785796157181262,0.1082718446850776,-0.6230911016464233,0.0561147816479206,jumping
1761226567293816600,-0.3812913735575974,-1.0975012226849794,-0.4546417103201151,-0.094779260456562,-0.351100206375122,0.0587474629282951,jumping
1761226567303830500,-0.539114329599589,-0.7819061640053987,-0.6000292554199695,-0.2881007790565491,-0.1722292602062225,0.1053173616528511,jumping
1761226567313843500,-0.6221531897488981,-0.3634685704886913,-0.6709393594235181,-0.3987150192260742,-0.0285696703940629,0.1666517406702041,jumping
1761226567323856600,-0.7978324858032166,-0.1104056635677814,-1.16941495077312,-0.3951956629753113,0.1192743852734565,0.2224121987819671,jumping
1761226567333870600,-1.03472897856012,0.299298003873229,-1.7431027272343635,-0.3123108446598053,0.2586925327777862,0.2603127658367157,jumping
1761226567343883500,-1.1499714876998215,0.970377648550272,-1.918719990903139,-0.2262486964464187,0.3486818373203277,0.2768025398254394,jumping
1761226567353897500,-1.021288336098194,1.563281582134962,-1.5970044035166502,-0.1811507046222686,0.3621512055397033,0.2669210135936737,jumping
1761226567363910700,-0.656290802476555,1.7352859160035847,-1.2017734980642796,-0.1592848151922226,0.34584441781044,0.2961963415145874,jumping
1761226567373923600,-0.2244165120206773,1.713681986960769,-0.8850058884739875,-0.1376887261867523,0.441333532333374,0.3769336938858032,jumping
1761226567383937500,0.0014869871547445,1.6418196967989205,-1.0651736550539732,-0.0836305543780326,0.5275917053222656,0.5131306648254395,jumping
1761226567393950700,0.0692922204781323,1.7028075417250397,-1.102203701287508,0.0511783026158809,0.593473494052887,0.6647201776504517,jumping
1761226567403963600,0.2548762764858082,1.6435183174103498,-1.230577567744255,0.2299831956624984,0.6363272070884705,0.7587953209877014,jumping
1761226567413977600,0.5295728865332902,1.2946037574529647,-1.14494569542706,0.3954410254955292,0.5369781255722046,0.7009204626083374,jumping
1761226567423990500,0.7188010346643626,0.5437964960664511,-0.6421259373933077,0.5264632701873779,0.369609922170639,0.4381111860275268,jumping
1761226567434003700,0.6607710896957665,-0.9214087427198886,-0.518007390293479,0.5928512215614319,0.1977102011442184,0.1315801441669464,jumping
1761226567444017700,0.5439580433037132,-1.6723755785822867,-0.4476625189572572,0.5879813432693481,-0.0509920269250869,0.012140292674303,jumping
1761226567454030600,0.621868600653857,-1.0532020622313023,0.1287573128163814,0.529168426990509,-0.2811298370361328,0.0535636730492115,jumping
1761226567464044500,0.6985194402664899,-0.138732178863883,0.4469827199995517,0.5108245611190796,-0.21739162504673,0.122607983648777,jumping
1761226567474057700,0.9338200421340764,0.2680003638118505,-0.2594517311751842,0.5179482698440552,-0.0764691904187202,0.1532007008790969,jumping
1761226567484070700,1.1879684062041342,0.2971370264470577,-0.9573042319655418,0.3941711783409118,-0.3094334900379181,0.1174818500876426,jumping
1761226567494084600,0.4320419021077454,0.4719739533931016,0.2412035423010587,0.1726090013980865,-0.4834787845611572,0.0445219352841377,jumping
1761226567504097800,0.2781920144151896,0.0868394945412874,0.9119313048005104,-0.0781342610716819,-0.280449241399765,-0.0252182614058256,jumping
1761226567514110500,0.6471322212480008,-0.4218891952753066,0.0352349795103073,-0.3110513091087341,0.108195312321186,-0.0408493280410766,jumping
1761226567524124700,0.745804630793631,-0.3174491621136665,-0.8849871837735176,-0.557196855545044,0.5357099175453186,-0.0029171267524361,jumping
1761226567534137600,0.5802683238953351,0.4760515780955552,-0.8754945482850074,-0.7779406309127808,0.9247792363166808,0.0771424323320388,jumping
1761226567544150500,0.1613364440556615,0.812141143271327,-0.8566928171813487,-0.824919581413269,1.293010711669922,0.1228707730770111,jumping
1761226567554164700,-0.3843305220577865,0.5186942035138606,-1.692659657198191,-0.6430317759513855,1.3903635740280151,0.0687703192234039,jumping
1761226567564177400,-0.6644957362420857,0.5139817880392075,-2.2465870866566897,-0.3005679249763489,1.166982650756836,-0.0544549413025379,jumping
1761226567574190600,-0.6780583245832472,0.5524859984785319,-2.2268144646942614,0.0849380418658256,0.8621851205825806,-0.1447854191064834,jumping
1761226567584204800,-0.4160389714097603,0.4622767352432012,-2.05193662121594,0.4318137168884277,0.5469517707824707,-0.1839274913072586,jumping
1761226567594217500,-0.001714146974124,0.4369669374197721,-1.7579121738314627,0.7018448114395142,0.2513027787208557,-0.1595475971698761,jumping
1761226567604231700,0.4022560913814231,0.6204518657237291,-1.2409516622424126,0.901654839515686,0.0446199253201484,-0.0941632688045501,jumping
1761226567614244600,0.7441094442483037,0.8495727560430765,-0.9346183529049158,1.0745748281478882,-0.0535065047442913,0.0267094746232032,jumping
1761226567624257500,0.961620853055641,1.0752157411187886,-0.7766413753449917,1.222064971923828,0.1817936301231384,0.1445096135139465,jumping
1761226567634271700,1.243702276124805,1.045184759992361,-0.8242343166470527,1.3103351593017578,0.2843532562255859,0.3246577978134155,jumping
1761226567644284400,1.716920822751522,-0.2285778694838285,-0.4337503134608269,1.0754529237747192,-0.2252636402845382,0.3905286788940429,jumping
1761226567654297600,1.5404422660782933,0.3637403731673955,2.6291502337157726,0.6654075384140015,-0.7005946636199951,0.4611150920391083,jumping
1761226567664311600,0.6653449004173279,1.0212246232122182,4.495145181125403,0.2704040110111236,-0.7680463790893555,0.5447418093681335,jumping
1761226567674324500,0.531087053955905,1.056611578413844,3.652006257522106,-0.0375840738415718,-0.5222368836402893,0.5847094655036926,jumping
1761226567684338700,-0.1141356073437258,1.0976701495110988,2.202051194837689,-0.1555280238389969,-0.1556479781866073,0.5864577889442444,jumping
1761226567694351600,-0.5479559538334607,1.0903759008496998,0.3190121736466884,-0.1580211073160171,0.2205869853496551,0.5103234648704529,jumping
1761226567704364500,-0.9782887870009987,0.6816121446073055,-1.1821814933657646,-0.0716883465647697,0.6871277689933777,0.3631545007228851,jumping
1761226567714378500,-1.2715353088155388,0.5400701690196991,-1.9925451055705543,0.0056686587631702,0.9491944313049316,0.2742900252342224,jumping
1761226567724391700,-1.1391432927586138,0.7021025594502687,-2.015358994925022,0.0117710260674357,0.9725367426872252,0.2260252833366394,jumping
1761226567734404600,-0.9671991646446289,1.0815753392785787,-0.972477835699916,-0.0104353632777929,0.9465419054031372,0.2620781064033508,jumping
1761226567744418600,-0.2474383085047826,1.1434610098272562,-0.236193605184555,-0.0493843629956245,0.703636884689331,0.3873779475688934,jumping
1761226567754431500,0.7927134622890502,1.1081506269931791,0.6900970643579959,-0.1035844087600708,0.2970756590366363,0.5293999314308167,jumping
1761226567764444700,1.479328895076364,1.1775333752989767,1.711275510340929,-0.1988906860351562,-0.0919234976172447,0.6316898465156555,jumping
1761226567774458600,1.6133657557308674,0.9695838678240776,2.346312950778007,-0.3845996558666229,-0.4127925336360931,0.7060650587081909,jumping
1761226567784471600,1.5576275018960235,0.5760527520269155,2.932570870476961,-0.6567081212997437,-0.646470308303833,0.7699795961380005,jumping
1761226567794485500,1.4056760682359335,0.1375719029128551,3.270896231880784,-0.8756957054138184,-0.6716817617416382,0.8106701374053955,jumping
1761226567804498700,0.8895555876675992,-0.2628635854452848,2.2290379859626293,-0.9750068187713624,-0.4302550554275512,0.7750396728515625,jumping
1761226567814511600,-0.0856225930321961,-0.2011737297296524,0.3383458196699619,-0.9506829977035522,-0.1031029000878334,0.662212073802948,jumping
1761226567824525600,-0.979780779124424,0.1419768598735332,-1.062016652327776,-0.8570036292076111,0.1593369841575622,0.5060155391693115,jumping
1761226567834538800,-1.5757774910926818,0.3314332638025283,-1.7151649189949034,-0.7319439649581909,0.3500291705131531,0.3716655075550079,jumping
1761226567844551700,-1.7347104542031884,0.3826847276121378,-1.8797592688679692,-0.6221160292625427,0.457543134689331,0.2689276933670044,jumping
1761226567854565600,-1.6987271405436095,0.2895201217025518,-1.6718968551546334,-0.4788244366645813,0.4910369515419006,0.1951618939638137,jumping
1761226567864578600,-1.590698142979294,0.1943184570074081,-1.5240017111480235,-0.3109275698661804,0.5177388787269592,0.1360525041818618,jumping
1761226567874591500,-1.3475100027322768,0.2425795068293809,-1.6149509790956973,-0.1559300273656845,0.5248621702194214,0.071211889386177,jumping
1761226567884605700,-1.0902954560246318,0.2866869441032409,-1.3645494003385306,-0.0108580440282821,0.5108193159103394,0.0497553348541259,jumping
1761226567894618600,-0.8300532320588827,0.299788417738676,-0.9428829079031944,0.1500781327486038,0.4905799627304077,0.09280277043581,jumping
1761226567904632600,-0.4687885282900184,0.2410001286834478,-0.7136907059133052,0.2666095197200775,0.4408222734928131,0.1320066303014755,jumping
1761226567914645800,-0.2116954160049557,0.0404652813792228,-0.3993324955523014,0.3268599212169647,0.3379877805709839,0.1582595705986023,jumping
1761226567924658400,-0.2311581683006137,-0.0148129537284374,0.1903793639928102,0.3287347853183746,0.1819680780172348,0.161883071064949,jumping
1761226567934672600,-0.3258474995594471,0.0377484236359596,0.8845078758239746,0.2756741344928741,0.0006276275962591,0.1528230607509613,jumping
1761226567944685800,-0.3671170099936425,-0.1070154366075992,1.285729546123743,0.2017714083194732,-0.1319181621074676,0.1306077688932418,jumping
1761226567954698500,-0.3761137517239898,-0.2876484826117754,1.167944878220558,0.1294350773096084,-0.1929703205823898,0.0979345142841339,jumping
1761226567964712700,-0.3791060654077678,-0.2594686823099851,0.8100234204649924,0.0849669352173805,-0.2176112234592437,0.0724224969744682,jumping
1761226567974725400,-0.4141421613451093,-0.0577326425224542,0.4009124582201242,0.0248939283192157,-0.211260974407196,0.043922871351242,jumping
1761226567984739600,-0.6032168724801391,0.0690700290948152,0.2753928121507167,-0.0777666717767715,-0.1670517027378082,0.0036239209584891,jumping
1761226567994752800,-0.8031264274928719,0.0918488471359014,0.3917980083942413,-0.1865116953849792,-0.1080093532800674,-0.0260007474571466,jumping
1761226568004765400,-0.8562469731099903,0.147712188655138,0.4710574230700731,-0.2532664835453033,-0.0147451926022768,-0.0451792366802692,jumping
1761226568014779600,-0.89658775132671,0.2308586738973856,0.067410571449995,-0.2306724935770034,0.2068611085414886,-0.0722139477729797,jumping
1761226568024792600,-0.9717852503258736,0.3589829495072364,-0.8100941476136445,-0.1910350769758224,0.3681155145168304,-0.108982615172863,jumping
1761226568034805500,-1.0155377366822211,0.5950456217885017,-0.9866308642148972,-0.1603184640407562,0.4391813278198242,-0.1354875266551971,jumping
1761226568044819700,-0.8884033488925546,0.7154799274176359,-0.6003542495906352,-0.1493869870901107,0.436697393655777,-0.1425912380218505,jumping
1761226568054832600,-0.5229861285541206,0.5509516285181045,-0.1848889498829841,-0.1429132670164108,0.3454663455486297,-0.1414289772510528,jumping
1761226568064846600,-0.1638226348482072,0.3182476190149784,0.2305120524168014,-0.1363072842359542,0.2240294218063354,-0.1340797245502472,jumping
1761226568074859500,0.0518745641440153,0.1900064390271902,0.4316436965703964,-0.1413915455341339,0.1661681234836578,-0.1027373522520065,jumping
1761226568084872400,0.142922250964865,0.1523106223613023,0.3630862931728363,-0.1486393362283706,0.1548329144716262,-0.063976377248764,jumping
1761226568094886700,0.2214105351377278,0.1757026038646698,0.2792716994106769,-0.1792019456624984,0.1279855668544769,-0.0277145188301801,jumping
1761226568104899600,0.2453165305778384,0.1557031874090433,0.4299053284704685,-0.2420831769704818,0.0733066126704216,-0.0010546792764216,jumping
1761226568114912500,0.2687587444311007,0.0549339517146348,0.7424661340206861,-0.3303233683109283,-0.0140537172555923,0.0131270363926887,jumping
1761226568124926500,0.2396456453345715,-0.1169026243716478,0.954208019515872,-0.3903400897979736,-0.1030554920434951,0.0212430208921432,jumping
1761226568134939600,0.1469864316638559,-0.263389070624113,0.7513578810065984,-0.4158887863159179,-0.145445168018341,0.0060764672234654,jumping
1761226568144953600,-0.0501991052124649,-0.2434212183505296,0.1900736590445041,-0.3964120149612427,-0.1261023730039596,-0.027721444144845,jumping
1761226568154967300,-0.3581016366280615,-0.128862526756525,-0.4810100772857665,-0.3365664482116699,-0.0759847089648246,-0.0687163546681404,jumping
1761226568164980200,-0.5129672772344201,0.020300445228815,-0.9905950916707515,-0.2611220180988312,0.0296812672168016,-0.0902852937579155,jumping
1761226568174994200,-0.4903397772975266,0.165683314153552,-1.299690851458907,-0.2008534669876098,0.141360804438591,-0.0990927889943122,jumping
1761226568185007000,-0.404273787879385,0.2627431739360094,-1.2633014412164687,-0.1534713059663772,0.212169736623764,-0.0957454591989517,jumping
1761226568195020300,-0.277116055746749,0.3290945917218923,-0.9586807810157536,-0.110330656170845,0.256111592054367,-0.0868768841028213,jumping
1761226568205034200,-0.1045517133751884,0.2832920409679412,-0.738581401541829,-0.0611111782491207,0.2334787249565124,-0.0916327536106109,jumping
1761226568215047200,0.0654751098753884,0.1608037254184484,-0.4661304880619049,-0.0279216188937425,0.1935376822948455,-0.0980270355939865,jumping
1761226568225061000,0.1033459908472374,0.0638350510507822,-0.2527022569149732,-0.003247964894399,0.1815569102764129,-0.0875669345259666,jumping
1761226568235074300,0.0805995041731744,0.1116758296340703,-0.1060159041762351,0.0058649131096899,0.1261332333087921,-0.0674766525626182,jumping
1761226568245087200,0.113713217213191,0.274019770231843,0.137471365147829,0.0171005222946405,0.0084675904363393,-0.0576368048787117,jumping
1761226568255101200,0.0860714693108573,0.3490881629586219,0.4752028523117304,0.0358627662062644,-0.1237885132431984,-0.0771935433149337,jumping
1761226568265114400,0.00968392027691,0.3335509866088628,0.6743991444885731,0.0729579403996467,-0.1967537999153137,-0.1103011667728424,jumping
1761226568275127300,-0.132948261700198,0.3995008378565311,0.6200467920541763,0.0940386354923248,-0.2025877833366394,-0.1442813128232956,jumping
1761226568285141200,-0.2225448729299008,0.543022589084506,0.6746224318504334,0.1042076498270034,-0.2030109614133834,-0.1577627658843994,jumping
1761226568295154200,-0.1591450714912265,0.6897802534937858,0.8995815263152122,0.0945559069514274,-0.1977245211601257,-0.1707264184951782,jumping
1761226568305168100,-0.0582547667004168,0.6985720472365617,1.118745086243749,0.0501418337225914,-0.1397645473480224,-0.1915249079465866,jumping
1761226568315181300,0.0187322460640221,0.4518400969028472,1.2232792274296282,0.0053337886929512,-0.0412861034274101,-0.203714907169342,jumping
1761226568325194200,-0.031919571352005,0.2226087319463491,0.9837176071166992,-0.0140199353918433,0.114525593817234,-0.2174213975667953,jumping
1761226568335208200,-0.2997279562557116,0.2503431265681982,0.339406726899743,-0.0174058713018894,0.1969572752714157,-0.2338861972093582,jumping
1761226568345221400,-0.4159474206687882,0.4945516959041356,0.1007920320481061,0.0040277810767292,0.1850697249174118,-0.2138946503400802,jumping
1761226568355234000,-0.3115705524038523,0.5611199713110924,-0.1191898585259914,0.0455643907189369,0.1924927830696106,-0.1830530911684036,jumping
1761226568365248300,-0.1325003718022257,0.2255459544420242,-0.5378694441050291,0.0890301167964935,0.1882138848304748,-0.1635622084140777,jumping
1761226568375261200,0.093195475971885,-0.4356085085481405,-0.7962760501414538,0.1129797473549842,0.1259253919124603,-0.1622102260589599,jumping
1761226568385275100,0.3443278532216325,-1.1857470768928526,-0.9081985480129718,0.1279973089694976,0.0150694511830806,-0.1837304383516311,jumping
1761226568395288300,0.497204804228805,-1.9660440521359444,-0.9361071301579474,0.1754194945096969,-0.0871361494064331,-0.2264503240585327,jumping
1761226568405301000,0.5744897404938936,-2.5014327853411435,-1.385932964628935,0.2601101696491241,-0.0940939262509346,-0.25990891456604,jumping
1761226568415315200,0.6393955625813454,-2.742219563534856,-2.0231939263343808,0.3114883005619049,-0.0077284346334636,-0.2736324965953827,jumping
1761226568425328000,0.6914737595386803,-2.6748341265261173,-2.4191361949265,0.2291987538337707,0.0012075356207787,-0.2305984795093536,jumping
1761226568435342300,1.0233524290211498,-2.39675602081418,-1.7907430148094892,-0.0073901722207665,-0.0749692469835281,-0.1223311126232147,jumping
1761226568445355300,1.479774154625833,-2.282752625015378,-0.7561696652024984,-0.3495405912399292,-0.1535897552967071,0.0368329733610153,jumping
1761226568455368200,1.5934361896410585,-2.433088147911429,-0.0435205772966146,-0.6374182105064392,-0.202268585562706,0.1804495602846145,jumping
1761226568465382100,1.3130878009095788,-2.5010171902775764,-0.1068283896028995,-0.746528148651123,-0.2260956168174743,0.2320938557386398,jumping
1761226568475395300,0.5463400430694222,-2.175880396270752,-0.7703355531990528,-0.6607558131217957,-0.3033934831619262,0.1790086776018142,jumping
1761226568485408300,-0.3819229129267856,-1.50655197917521,-1.1619874311208724,-0.448823869228363,-0.4759908318519592,0.0762356892228126,jumping
1761226568495422200,-0.9249209886245428,-0.7429284908354282,-0.968715852817893,-0.2156756520271301,-0.7367357015609741,-0.0264453031122684,jumping
1761226568505435100,-1.0417580004140734,-0.1831219402104616,-0.3831570212990045,-0.1147940382361412,-1.0293409824371338,-0.1167014315724372,jumping
1761226568515449300,-0.9860065217714756,0.1359393332749605,0.5392874942094087,-0.1856303066015243,-1.144764423370361,-0.183343768119812,jumping
1761226568525462300,-0.9502193882711232,0.3822808229863643,1.2099345926880836,-0.40084969997406,-0.9791933298110962,-0.2196322679519653,jumping
1761226568535475200,-1.1099543884795158,0.7293143915027379,1.415658825328946,-0.7191154956817627,-0.6479616165161133,-0.2447688281536102,jumping
1761226568545489400,-1.1962626987535503,1.1778384957253931,1.5652525899469851,-1.0731927156448364,-0.2370012551546096,-0.253495991230011,jumping
1761226568555502000,-1.3050316279649734,1.629552920421958,1.5445301199138164,-1.346631407737732,0.2382403761148452,-0.26103675365448,jumping
1761226568565516300,-1.4517602124102411,1.979446554544568,1.106560142931342,-1.4669431447982788,0.6927764415740967,-0.2939246594905853,jumping
1761226568575529200,-1.7020656373165546,2.1735259420990944,0.3192728704094886,-1.4036377668380735,1.0792136192321775,-0.3875273466110229,jumping
1761226568585542100,-2.079793473173678,2.244987834766507,-0.3902168766826391,-1.1779558658599854,1.296088933944702,-0.5194991827011108,jumping
1761226568595556400,-2.162845850391686,2.376007831817865,-0.6463198819518089,-0.8434940576553345,1.2897992134094238,-0.6340950131416321,jumping
1761226568605569000,-1.85585904558152,2.5582950747698545,-0.391515099799633,-0.4688546359539032,1.0545411109924316,-0.7185824513435364,jumping
1761226568615582200,-1.363694975466281,2.693912921005487,0.2990712093800306,-0.0768401846289634,0.6287402510643005,-0.7494287490844727,jumping
1761226568625596200,-0.7262368837535381,2.8272207367330786,0.9794307235777376,0.3120148777961731,0.1534195393323898,-0.6951234340667725,jumping
1761226568635609000,0.004578212902043,3.01787833314538,1.2533394346505402,0.5817422866821289,-0.244527205824852,-0.6052429676055908,jumping
1761226568645623300,0.5376291325431317,3.219946381366253,1.4136124141931532,0.7448270916938782,-0.5411514639854431,-0.4360816478729248,jumping
1761226568655636200,0.7482847571715712,3.379761095747352,1.7488649440228938,0.9150163531303406,-0.6870841979980469,-0.1494691669940948,jumping
1761226568665649200,1.1707689226653426,3.5119507210999723,1.286615096786618,0.9267265200614928,-0.6600757837295532,0.0662796422839164,jumping
1761226568675663400,1.0463579684901982,2.755798007032275,0.6997235553592444,0.8297102451324463,-0.4954127669334411,0.1989192217588424,jumping
1761226568685676000,0.3212643730202689,1.9611013350367543,0.3367576736956834,0.6534516215324402,-0.1192431151866912,0.2349776178598404,jumping
1761226568695690200,-0.592803067026101,0.8851590332090854,-0.2799059056609869,0.467055082321167,0.2140772193670272,0.1791672259569168,jumping
1761226568705703200,-0.9843956525087356,-0.3889654153168201,-0.9403729709088802,0.3781406581401825,0.5817026495933533,0.0388263650238513,jumping
1761226568715716000,-0.8256745055180043,-1.9821055446207525,-1.9411714766860009,0.3921711444854736,0.9929949641227722,-0.1469470411539077,jumping
1761226568725730300,-0.4103524867385625,-3.512413662436604,-3.004678075310588,0.4484506547451019,1.138457179069519,-0.3452766537666321,jumping
1761226568735743200,0.2013670786109752,-4.324713211140036,-2.9432547615766524,0.5128286480903625,1.0303314924240112,-0.4958901405334472,jumping
1761226568745757200,0.8930041937515139,-4.473321471852064,-2.028954974079132,0.5677683353424072,0.7590804696083069,-0.5665419697761536,jumping
1761226568755770000,1.749972320742905,-4.330228759691119,-0.9974860202282668,0.4881603419780731,0.3460247218608856,-0.5258967876434326,jumping
1761226568765783300,2.644153157058358,-3.86502064717114,0.3643424307137727,0.0171584784984588,-0.2491856515407562,-0.4123811423778534,jumping
1761226568775797200,3.195115014709532,-3.0496950286448,2.91520998583138,-0.836445689201355,-0.735804557800293,-0.2880056202411651,jumping
1761226568785810200,2.991359451793134,-2.225149161830544,5.220600559112429,-1.6675809621810913,-0.8998627066612244,-0.0874951779842376,jumping
1761226568795823000,2.512837976452708,-1.5992659187078475,4.685023025336862,-2.3407723903656006,-1.0468900203704834,0.0226270128041505,jumping
1761226568805837000,0.3405612306971102,-0.371315192335844,3.323822935426235,-2.687722682952881,-0.7649624943733215,-0.0268377419561147,jumping
1761226568815850200,-1.685825427263975,0.4259615592807531,1.0938730953156948,-2.5771138668060303,-0.1779327094554901,-0.1015528813004493,jumping
1761226568825864200,-2.149146703124046,0.6127005209445953,-2.1583400634050367,-2.171546459197998,0.4952342510223388,-0.2644099593162536,jumping
1761226568835877000,-2.505661801213026,0.7789449761122464,-3.931612887975573,-1.66829252243042,1.0169366598129272,-0.433245986700058,jumping
1761226568845890300,-2.228497303214669,1.2236924844056367,-3.9485891572177407,-1.1232627630233765,1.2677212953567505,-0.4555185437202453,jumping
1761226568855904000,-1.2971316684953869,1.6821721654534338,-2.7358997128635645,-0.5971142649650574,1.039166808128357,-0.4131259024143219,jumping
1761226568865917200,-0.4371044461943209,2.3750579837471246,-0.6466770248264074,-0.1507476866245269,0.4334535002708435,-0.3664183318614959,jumping
1761226568875931100,0.1967996062986552,2.656171511632204,1.6502724678456782,0.2018985897302627,-0.3162436783313751,-0.3106290996074676,jumping
1761226568885944000,0.9727950849555432,2.495598672360181,3.129580466264486,0.4613011181354522,-0.8249273896217346,-0.2532976269721985,jumping
1761226568895957200,1.3340823658823966,2.5332681855410337,3.3297651849567886,0.6321225762367249,-0.9708511233329772,-0.1727839559316635,jumping
1761226568905971200,1.102753005733341,2.744369435045123,2.6423171738028524,0.7557827830314636,-0.7616158723831177,-0.0730733275413513,jumping
1761226568915984100,0.6284545549154281,3.07093772315979,1.5968278779059648,0.8701037764549255,-0.2741870880126953,0.0289579480886459,jumping
1761226568925998300,-0.1245242052912712,3.346917395287752,0.5165922627985478,0.994015097618103,0.2374522089958191,0.1212551221251487,jumping
1761226568936011300,-0.8349398350566625,3.4545103395223618,0.3324555925875902,1.1286180019378662,0.5652334690093994,0.2215038836002349,jumping
1761226568946024200,-1.3744737052425742,3.839461843022704,0.4230237522631883,1.2140004634857178,0.5979839563369751,0.2999137043952942,jumping
1761226568956038100,-1.9724078880794345,3.866323546463251,1.0820546472281216,1.2492289543151855,0.2540341019630432,0.3521354794502258,jumping
1761226568966051000,-1.9499387205094096,3.178030316656828,1.7732541198700666,1.2753807306289673,-0.234173908829689,0.313608318567276,jumping
1761226568976065300,-2.151718891699612,2.1889304319798946,1.8257541224360463,1.336310625076294,-0.4695256054401397,0.1975428313016891,jumping
1761226568986078200,-2.4688100341558457,1.0825941609323024,0.5550713387966155,1.422771453857422,-0.4193239510059356,0.0913223847746849,jumping
1761226568996091100,-2.1857433263763784,-0.0267038825303316,-1.1552899793088436,1.481027364730835,-0.1955513060092926,0.0678540766239166,jumping
1761226569006105000,-1.383907304020226,-0.969933996436,-2.163248878234625,1.4580234289169312,0.2266191095113754,0.1439544409513473,jumping
1761226569016118300,0.0470013686170801,-2.033729933395981,-2.650275439330936,1.2592748403549194,0.4752498269081116,0.2938697636127472,jumping
1761226569026131200,2.0159759577795864,-3.697146544975042,-1.8315876508951183,0.8552253842353821,-0.0257903523743152,0.3825301229953766,jumping
1761226569036145200,3.448868241982162,-5.334526213499903,1.0434306098014117,0.3811171352863312,-0.9089993834495544,0.4108686745166778,jumping
1761226569046158300,4.401998695394396,-6.924092575970292,3.0600036566913125,-0.0770735740661621,-1.81847620010376,0.3372051119804382,jumping
1761226569056172000,4.463938141956925,-7.534446826049685,3.152884184962511,-0.7123880982398987,-2.803105354309082,0.1467673331499099,jumping
1761226569066185200,1.8945513259388505,-5.994637889438867,3.5963720485836266,-1.5910054445266724,-3.4513113498687744,-0.1287832856178283,jumping
1761226569076198100,-1.0909021897461264,-4.936463884013891,3.367131915798783,-2.57602334022522,-3.5315866470336914,-0.3791905343532562,jumping
1761226569086212000,-2.9978876845180986,-4.243922349113226,1.1199147145450117,-3.3835039138793945,-2.9244589805603027,-0.468723863363266,jumping
1761226569096225300,-3.920876097644865,-2.561593531793356,-2.044865659916401,-3.731521606445313,-1.5136066675186155,-0.2765083014965057,jumping
1761226569106239200,-2.8576711123153564,-0.1311427466481924,-6.331497269943356,-3.667473793029785,0.051337145268917,0.0363928899168968,jumping
1761226569116252200,-0.92776812168397,1.9994985779702663,-9.37877939222753,-3.44821572303772,1.1233397722244265,0.2722902595996856,jumping
1761226569126265300,0.194363465192914,2.470448449012637,-8.920175208017229,-2.9012012481689453,1.6114110946655271,0.588215708732605,jumping
1761226569136279000,1.864543579557538,2.042769564419985,-6.910061712530255,-1.969151735305786,1.5796294212341309,0.9104663729667664,jumping
1761226569146292200,1.903827396067232,1.0623042370975018,-5.029564777037501,-0.760628342628479,1.3701726198196411,0.9143447279930116,jumping
1761226569156306200,1.380422969035804,0.3858458219915628,-3.739315707662701,0.3948468267917633,0.6235679984092712,0.6078367829322815,jumping
1761226569166319400,0.0482477154163643,-0.199510764953494,-1.1105617797881364,1.091405749320984,-0.2026223540306091,0.1570048928260803,jumping
1761226569176332500,-0.2901270746197551,-1.394584473118186,2.6676889309465883,1.3168739080429075,-0.6812264323234558,-0.3998607099056244,jumping
1761226569186346200,-0.3081043010653927,-2.218786641061306,4.669067331314087,1.23833966255188,-0.8456814289093018,-0.8925867676734924,jumping
1761226569196359400,-1.8328452497407792,-0.4170721503823995,5.6622267205148935,0.9985083341598512,-0.6253406405448914,-1.088863730430603,jumping
1761226569206373400,-0.8584282626718283,0.9525544070899488,5.319725534731149,0.6719541549682617,-0.2791388034820556,-0.970346450805664,jumping
1761226569216386300,0.7528525034785271,1.785551291385293,4.673423188436031,0.4003596603870392,0.0770981684327125,-0.7012953162193298,jumping
1761226569226399500,0.8440956398062407,3.613061317577958,4.009754112276434,0.2696261405944824,0.5421510338783264,-0.3608727157115936,jumping
1761226569236413400,0.496873161121644,5.001466225278377,2.8821587801009416,0.3331287503242492,0.98473858833313,-0.0519746877253055,jumping
1761226569246426400,0.3811755651582032,5.241508907106518,1.5775392400681971,0.5249789357185364,1.2955063581466677,0.1195435374975204,jumping
1761226569256440300,-0.4031966966997832,5.1611862471133465,0.8974556202024221,0.8243601322174072,1.3520113229751587,0.2370031774044037,jumping
1761226569266453200,-0.8761144337490201,5.105727979263663,0.6971364614754915,1.2346129417419434,1.200739860534668,0.3606481552124023,jumping
1761226569276466400,-0.7045072825044393,5.140676543048024,0.6166840376228093,1.6664302349090576,0.9243322610855104,0.4766555428504944,jumping
1761226569286480400,-0.6550522736575454,5.078678059774637,0.7019400623649358,1.9955538511276243,0.5387440919876099,0.5203460454940796,jumping
1761226569296493300,-0.8992997136991471,4.352767339235544,1.1584463975131511,2.148710250854492,0.0018334703054279,0.4117955565452575,jumping
1761226569306506500,-1.537024566589296,2.947054738381505,1.9320693018198007,2.1374104022979736,-0.6192484498023987,0.1852481663227081,jumping
1761226569316520400,-2.0719705244630573,1.3326806823909283,2.460735448771715,1.955060601234436,-1.1118764877319336,-0.0681705102324485,jumping
1761226569326533400,-2.145902460505813,-0.065552960884571,1.9848527975022792,1.6288284063339231,-1.2591615915298462,-0.2163554430007934,jumping
1761226569336547300,-1.1245477081079036,-1.732418836134672,0.4074041583269834,1.2637773752212524,-1.0959233045578003,-0.2473896741867065,jumping
1761226569346560500,0.5790842652099206,-3.516523435842991,-1.8108207571983337,0.9379768371582032,-0.9491891264915466,-0.2251799702644348,jumping
1761226569356573400,1.8042343645453447,-4.545433937382698,-3.454408632713556,0.5824549794197083,-0.771244466304779,-0.2079330384731292,jumping
1761226569366587400,2.103709770812094,-5.376097994816303,-4.060059235146642,0.2115040719509124,-0.508248507976532,-0.2129746675491333,jumping
1761226569376600300,2.129761911435425,-6.215100257006287,-4.0280262665480375,-0.2072120457887649,-0.3545573949813843,-0.2740664184093475,jumping
1761226569386614300,1.1147959832917895,-5.737250105056166,-2.7866964186429977,-0.7830870747566223,-0.4320961236953735,-0.3219343423843384,jumping
1761226569396627500,-0.2449050637001171,-4.586071068197488,-0.5118681568861008,-1.5356568098068235,-0.8229297399520874,-0.3432669341564178,jumping
1761226569406640400,-0.9734574943870306,-3.9675890412420034,1.7681518282949924,-2.3492367267608643,-1.2979825735092163,-0.375161200761795,jumping
1761226569416654300,-1.3065342876128851,-3.769267193812132,2.7799194718539715,-2.860726833343506,-1.2309470176696775,-0.4156467914581299,jumping
1761226569426667500,-1.2801222276359796,-3.524716094648838,0.4313485130161046,-2.8374297618865967,-0.5633863210678101,-0.4521912336349487,jumping
1761226569436681200,-1.3518231897562742,-2.60351135006845,-4.077869617125391,-2.3712716102600098,0.2837099134922027,-0.5071332454681396,jumping
1761226569446694400,-1.404037214987725,-1.3924334325641392,-7.002030971175432,-1.671362280845642,0.8790872097015381,-0.5997494459152222,jumping
1761226569456707600,-1.2703146809794008,-0.6383686306864023,-7.0910811275035135,-0.89328533411026,1.0746654272079468,-0.7284824848175049,jumping
1761226569466721300,-0.8468072368524968,-0.1363923377394676,-5.154087813284993,-0.1302856802940368,0.9047200083732604,-0.8274205327033997,jumping
1761226569476734500,0.1053124868809245,0.5488169545769691,-2.3919623567968604,0.4983115792274475,0.4889116585254669,-0.8793327808380127,jumping
1761226569486748400,1.3577007034875452,1.1754466321527957,0.4886994627445936,0.9761085510253906,-0.0237199310213327,-0.8316051959991455,jumping
1761226569496761300,2.1963179118826983,1.889684450554848,2.6253666235238318,1.2804033756256104,-0.4596999883651733,-0.7236859202384949,jumping
1761226569506774500,2.6955685792580244,2.5477263344824315,3.93725118612349,1.498460054397583,-0.5331665277481079,-0.5580892562866211,jumping
1761226569516788500,3.0138182440996166,2.9831010342746973,3.777832777583599,1.6354612112045288,-0.3847302198410034,-0.3467608690261841,jumping
1761226569526801400,2.432639965752512,3.7352123639971015,3.465583522200584,1.6449472904205322,-0.2028792053461074,-0.0855950564146041,jumping
1761226569536815400,1.9001064758479596,4.021372069355845,3.6429321397066112,1.561073660850525,0.0037760608829557,0.1069121807813644,jumping
1761226569546828300,1.1769590825423597,3.991756683292985,3.9535412266671655,1.464445948600769,0.24070605635643,0.1771157681941986,jumping
1761226569556841500,-0.2740182906608097,3.935065658777952,3.967416607284546,1.449135184288025,0.4578129649162292,0.1085549443960189,jumping
1761226569566855400,-1.4620935365065932,3.509360704606771,3.651189095920324,1.559467077255249,0.6313192248344421,-0.113654688000679,jumping
1761226569576868400,-2.564958039790392,3.0535289077192544,3.2442554777145385,1.7393888235092163,0.5725597739219666,-0.4525962769985199,jumping
1761226569586882300,-3.4044144754886627,2.932322448673844,3.176332865089178,1.950240135192871,0.3771902918815613,-0.7819968461990356,jumping
1761226569596895500,-3.2959806965157386,3.0861428910762068,3.07539528709054,2.119999885559082,0.2754382193088531,-1.0595163106918335,jumping
1761226569606908400,-2.8085940699353813,3.4132711511611937,2.572382636833191,2.181101560592652,0.2163583785295486,-1.2394616603851318,jumping
1761226569616922400,-2.3724752737775443,3.960499375241995,2.543797178339958,2.144988536834717,0.2035596668720245,-1.195165514945984,jumping
1761226569626935600,-1.703017823474854,4.491804054003953,2.513323129621148,1.9586169719696045,0.0626171827316284,-0.910511076450348,jumping
1761226569636949200,-0.8851000695634633,5.187510190415382,2.8143267683684825,1.6514583826065063,-0.0781928375363349,-0.4178983271121979,jumping
1761226569646962400,0.426188865230605,4.673944581961631,2.706139365372062,1.3349217176437378,-0.0729341581463813,0.0523000657558441,jumping
1761226569656975400,1.0305451900694518,3.224839414104819,1.7874562482237817,1.0307446718215942,0.0864924937486648,0.2864720523357391,jumping
1761226569666989300,0.0398382720546796,1.5674001233696937,0.7708171992361545,0.7218859195709229,0.2503658533096313,0.3471673727035522,jumping
1761226569677002500,-0.5329092644143849,-0.5856359884083271,-0.0947206031799316,0.3626518547534942,0.5259595513343811,0.3333123922348022,jumping
1761226569687016400,0.1995566864544525,-3.1340801157712934,-0.908899389758706,-0.0317204818129539,0.8487918972969055,0.2689496576786041,jumping
1761226569697029400,0.7002650418248028,-5.25351674028635,-1.50964760710299,-0.352405309677124,1.0565146207809448,0.2154588550329208,jumping
1761226569707042600,1.221677929712832,-6.547753417992592,-1.9700591329962012,-0.6288741827011108,0.977247416973114,0.1658218055963516,jumping
1761226569717056300,2.070240924191475,-7.598005398246645,-1.852968877097964,-0.9134219884872437,0.4279155433177948,0.0451286360621452,jumping
1761226569727069400,2.353619620529562,-8.348880464172362,-0.8777490492135286,-1.1852573156356812,-0.2733437716960907,-0.1003784984350204,jumping
1761226569737083400,1.402702897644043,-7.985666745227575,-0.20569149941504,-1.3928982019424438,-0.8027179837226868,-0.1609617918729782,jumping
1761226569747096300,1.1415109717380254,-7.44027216631472,-0.8402408640742302,-1.5896594524383545,-1.1711782217025757,-0.1246818155050277,jumping
1761226569757109500,1.2478992894232273,-7.0016983782202,-1.7463643593788143,-1.7815344333648682,-1.5383819341659546,-0.0202048029750585,jumping
1761226569767123500,1.4942475011363625,-6.57116235063076,-2.362021976563334,-1.8675707578659055,-1.769282579421997,0.162113606929779,jumping
1761226569777136400,1.823575755483657,-6.169307643124461,-3.6621827836215495,-1.707580804824829,-1.732160568237305,0.3627784848213196,jumping
1761226569787150300,1.5527650104261934,-5.517890145772696,-5.6407186530619855,-1.244721531867981,-1.4418784379959106,0.5372421741485596,jumping
1761226569797163500,0.67268883343935,-4.41400360596478,-7.328060914629697,-0.5822201371192932,-0.8698552846908569,0.5732221603393555,jumping
1761226569807176400,-0.3501382565334439,-3.315279563486576,-7.8733257296830415,0.1365484148263931,-0.203907310962677,0.4498773217201233,jumping
1761226569817190400,-1.7064681100592016,-2.114835268199444,-6.88306673809886,0.7190101742744446,0.1928891837596893,0.2422297745943069,jumping
1761226569827203300,-2.313133442492783,-0.83496321593225,-3.7040778055429455,0.9956417679786682,0.1272294968366623,0.0178459268063306,jumping
1761226569837217300,-1.8069126438438887,0.2854448350876569,0.848641028150916,0.919533908367157,-0.3603564202785492,-0.1862627267837524,jumping
1761226569847230500,-0.5622824392192065,1.3753776683449743,5.187409068128466,0.5132681727409363,-1.0695199966430664,-0.3214362561702728,jumping
1761226569857243400,0.4222566403482109,2.665564193877578,8.537793847265839,-0.1244137734174728,-1.7769008874893188,-0.3596841394901275,jumping
1761226569867257300,0.8177344332337378,3.810078512150049,10.13313353244066,-0.7858156561851501,-2.194656610488892,-0.3751062452793121,jumping
1761226569877270500,0.6024979836210608,4.403662244692445,9.645987144356964,-1.2932970523834229,-2.0704472064971924,-0.4398066401481628,jumping
1761226569887284200,-0.1331425056306645,4.5323359708786,7.167511456233263,-1.5977935791015625,-1.5977483987808228,-0.5326026678085327,jumping
1761226569897297400,-0.8134222691230475,4.758558217146993,4.37506217315197,-1.7251977920532229,-1.038068413734436,-0.5766231417655945,jumping
1761226569907310600,-1.022938295262307,5.067932209354638,2.3013047652721403,-1.7095816135406494,-0.4737498760223388,-0.5529777407646179,jumping
1761226569917324300,-0.7904413526386022,5.289469512677193,1.0126263062149286,-1.5637338161468506,0.0084200231358408,-0.4826563596725464,jumping
1761226569927337500,-0.4486304506739601,5.482759795680642,0.2798001071989536,-1.3174118995666504,0.4686959981918335,-0.4158791899681091,jumping
1761226569937351400,-0.1909862438447773,5.348233836334943,-0.1699941630899906,-1.027900457382202,0.8610213398933411,-0.4058708548545837,jumping
1761226569947364400,-0.2012264828301966,4.8312633878737685,-0.1701461387813091,-0.7399315237998962,1.0605435371398926,-0.3973412811756134,jumping
1761226569957377500,-0.3525505783721804,4.426341694012284,0.5341922168970108,-0.4405767917633056,1.072674036026001,-0.350614994764328,jumping
1761226569967391500,-0.1765222314181737,4.090604595535994,1.3823007456064222,-0.142115518450737,0.9370986223220824,-0.2970409989356994,jumping
1761226569977404400,0.2494747097032144,3.805841897493601,2.043330120912194,0.1533708125352859,0.7807751893997192,-0.2449618726968765,jumping
1761226569987418400,0.5863088461685926,3.62904039247632,2.4668074621617797,0.4542054533958435,0.5976511836051941,-0.2039041817188263,jumping
1761226569997431300,0.8358623567290604,3.470332178032398,2.858051343804598,0.7006415128707886,0.3274091482162475,-0.1979958564043045,jumping
1761226570007445200,1.0461791778571905,3.316325273147225,3.4183903938710687,0.8540313243865967,0.0539496466517448,-0.2073336988687515,jumping
1761226570017458400,1.1343237636476755,3.198202167069912,3.7521307655721903,0.9167999029159546,-0.1893323212862014,-0.1485258638858795,jumping
1761226570027471400,1.270382339388132,3.0500147621184586,3.6353789478480816,0.9126113057136536,-0.3674525022506714,-0.0394723489880561,jumping
1761226570037485300,1.356908384066075,2.846933737462759,2.994610854804516,0.8727434277534485,-0.5305297374725342,0.0926538407802581,jumping
1761226570047498500,1.023157344840467,2.7642922791332003,2.0259394256502388,0.8159547448158264,-0.5916628241539001,0.2278388142585754,jumping
1761226570057512200,0.268206389511656,2.3346324498564,0.5593769270360469,0.7674563527107239,-0.4836072921752929,0.3297576606273651,jumping
1761226570067525400,-0.7587269484698772,1.3881471335470676,-1.3363888892590998,0.7996837496757507,-0.2055801749229431,0.3596955835819244,jumping
1761226570077538600,-1.7714837491966784,0.2981307136595249,-3.470354389864206,0.9628713130950928,0.2878414690494537,0.3031138181686401,jumping
1761226570087552300,-1.9947337016560136,-1.0030927541941403,-5.74988922187686,1.2008798122406006,1.0353548526763916,0.1577390283346176,jumping
1761226570097565400,-1.696363626282662,-2.428696050432324,-7.640586064344644,1.3735061883926392,1.922381043434143,-0.0639331340789794,jumping
1761226570107579400,-1.0143033725816757,-4.223951574230194,-8.124840238118171,1.3368592262268066,2.1388967037200928,-0.2752435207366943,jumping
1761226570117592300,-0.0932072394749149,-5.380539776656032,-5.853865144658088,1.0089274644851685,1.331594705581665,-0.3483407199382782,jumping
1761226570127605500,1.5090443805128335,-6.198495159164071,-1.905357235983014,0.5439275503158569,0.0620730146765708,-0.2492793649435043,jumping
1761226570137619500,4.07465679255873,-8.018159148031472,-0.0489355880826711,0.1557148396968841,-1.233654499053955,-0.1996592283248901,jumping
1761226570147632400,4.03994788274914,-8.422879181841015,-0.7444529239237309,-0.0830607339739799,-1.9682621955871584,-0.2291396260261535,jumping
1761226570157645800,1.241708764220029,-6.583488748240471,-3.1585078700631857,-0.2216359078884124,-1.96423614025116,-0.1457342505455017,jumping
1761226570167659000,0.020988459459017,-6.004899171212315,-6.244457284393906,-0.390195369720459,-1.3892115354537964,0.0114854676648974,jumping
1761226570177672000,-0.3728243182571604,-6.049712126407027,-8.048108880615233,-0.6407773494720459,-0.5871460437774658,0.2018250972032547,jumping
1761226570187686000,-0.3653736003924161,-5.905851352483034,-8.200784829157591,-0.9128134250640868,0.0147903626784682,0.4559239745140075,jumping
1761226570197699000,0.4944278137961402,-5.618529033085704,-6.864774125561118,-1.134943962097168,0.2453814148902893,0.7414134740829468,jumping
1761226570207712800,1.2423545147776602,-4.953712540456652,-4.769370703062415,-1.200029730796814,0.2787367105484009,0.997520387172699,jumping
1761226570217726000,0.9208334270499646,-3.88736165831685,-3.150104198855161,-1.100497126579285,0.2925853133201599,1.0910780429840088,jumping
1761226570227739100,-0.1008095129058696,-2.9933617315262557,-2.137683059823513,-0.9280236959457396,0.2466684281826019,0.9679301381111144,jumping
1761226570237752800,-1.2374259723342955,-2.407361001458764,-1.0338725078612565,-0.7096741199493408,0.084279865026474,0.7054751515388489,jumping
1761226570247766000,-1.7004685773834585,-1.642598279955983,0.209811209693551,-0.4415098130702972,-0.0365253798663616,0.4673675298690796,jumping
1761226570257780000,-1.1815088548012078,-0.6173357795298099,0.7273334468185901,-0.110752634704113,-0.0529713369905948,0.2994843423366546,jumping
1761226570267793000,-0.213590216775611,0.7457891409635543,0.8937281241118907,0.2491941004991531,-0.0852504521608352,0.1766023486852646,jumping
1761226570277806000,0.5003349189480767,2.1949369789183137,1.419648187226057,0.5703911185264587,-0.2824742794036865,0.0779647529125213,jumping
1761226570287820000,0.6892510419879109,3.2281858019232748,2.602804663103819,0.8255797624588013,-0.5794675946235657,-0.0048478376120328,jumping
1761226570297833000,0.665722355427593,3.6720477595537897,3.671851944720745,1.0722692012786863,-0.653573751449585,-0.1179485321044921,jumping
1761226570307847000,0.8307377071917057,3.6722353910803793,3.7450481138348577,1.334701657295227,-0.4851264357566833,-0.2600087225437164,jumping
1761226570317859800,0.7702224482133984,3.8720740728139873,3.3933810402989386,1.477618932723999,-0.3316843509674072,-0.4417427778244018,jumping
1761226570327873000,-0.1363295381689444,4.439603326645493,3.978682682186365,1.4434548616409302,-0.2374324351549148,-0.5860733389854431,jumping
1761226570337887000,-0.4241414677141234,4.538012847471237,5.425614013135433,1.3152482509613037,-0.2403410673141479,-0.711412787437439,jumping
1761226570347900000,0.123544400473684,4.608129755270481,6.43645168236792,1.183655858039856,-0.2879743576049804,-0.8339743614196777,jumping
1761226570357913900,0.2569724085148424,4.754886835157871,6.768159671458601,1.0892276763916016,-0.3763397634029388,-0.940899133682251,jumping
1761226570367927000,0.3006407602516934,4.714048044291139,6.604502310174703,1.124021291732788,-0.3754121959209442,-0.9818060994148254,jumping
1761226570377941000,0.7389239313691854,4.585722108629346,5.639148042744398,1.3135918378829956,-0.4128348529338836,-0.9849780797958374,jumping
1761226570387954000,0.7559319839891046,4.845048752120137,3.969353712826967,1.569546461105347,-0.2972035706043243,-0.972155511379242,jumping
1761226570397967000,-0.0685398677408695,5.617143131685257,2.746310632240772,1.7896170616149902,-0.0675949305295944,-0.86006760597229,jumping
1761226570407980800,0.3751249598823487,5.568877990210056,2.142703518334031,1.907368779182434,0.1203571334481239,-0.7248762249946594,jumping
1761226570417994000,0.5353092016955837,5.492624771612882,2.4054051912158725,1.951290249824524,0.2535617351531982,-0.6178760528564453,jumping
1761226570428008200,0.0344871134352055,5.192473950302601,2.991908025586605,1.97272527217865,0.4233278632164001,-0.5712688565254211,jumping
1761226570438020900,-0.0393459402267821,4.168517856299877,3.1747955725193022,1.977100610733032,0.7136542797088623,-0.6063628792762756,jumping
1761226570448034000,0.2112797661424614,2.9515812758952378,2.9150457351803776,1.914221167564392,0.8073962330818176,-0.760330855846405,jumping
1761226570458048000,-0.6825722218111157,2.3638942001760004,2.8130121786385773,1.706027269363403,0.4178231358528137,-0.9754517674446106,jumping
1761226570468061000,-2.001835788746178,2.343160039705038,3.6230578109353777,1.3683557510375977,-0.4060022830963135,-1.1315264701843262,jumping
1761226570478075100,-2.1682903795331714,2.133513080662489,4.370664814975857,1.152056097984314,-0.9332295656204224,-1.1504522562026978,jumping
1761226570488087800,-1.0294370096318424,1.454246037876606,2.307281501594186,1.1688518524169922,-1.0104042291641235,-1.123823881149292,jumping
1761226570498101000,-0.8275222522765397,1.094072417280078,-2.1733745509296654,1.3342533111572266,-0.7775909304618835,-0.9924162030220032,jumping
1761226570508115000,-1.9336413734421127,0.8978653700470924,-6.167620712950825,1.4694279432296753,-0.2743259370326996,-0.8878823518753052,jumping
1761226570518127900,-3.093394177378714,-0.0345896673440933,-8.579984052741526,1.544680953025818,0.7599328756332397,-0.8605296611785889,jumping
1761226570528142000,-4.333502082273363,-1.4292781853586434,-10.526953986573218,1.480923771858215,2.01047945022583,-0.8562086820602417,jumping
1761226570538155000,-3.597873100796342,-3.528932835561037,-11.5138011238873,1.14181649684906,2.5595993995666504,-0.7306110858917236,jumping
1761226570548168000,-1.12723789703995,-5.608971515667438,-9.21454803044796,0.5056413412094116,1.954983472824097,-0.4489511847496032,jumping
1761226570558182000,2.911482489740848,-8.364003799024223,-4.121462675136328,-0.1832349151372909,0.5410584211349487,-0.365116536617279,jumping
1761226570568195000,4.514819603410363,-11.159273400223254,-0.6462997159466147,-0.7698802947998047,-0.2773269414901733,-0.5494267344474792,jumping
1761226570578209000,1.0963403622120618,-10.698216562163829,-1.0979229552283882,-1.2920316457748413,-0.2076439410448074,-0.7125236988067627,jumping
1761226570588222000,-0.7779653174251318,-10.186825375139712,-3.821244049286842,-1.854497194290161,0.0643356367945671,-0.7970263361930847,jumping
1761226570598236200,-0.590200665975362,-9.280477423429488,-4.051606171838939,-2.37751579284668,0.3277266919612884,-0.7603102326393127,jumping
1761226570608248800,0.6803139214903116,-8.276002859488129,-3.2997838881909844,-2.7817158699035645,0.7000232934951782,-0.5657373070716858,jumping
1761226570618262000,2.286445195923001,-6.8582122828274965,-3.094859866017103,-3.0591726303100586,1.068504810333252,-0.2270683050155639,jumping
1761226570628276200,3.3402193589538336,-5.161413626128435,-2.684316240620613,-3.155228853225708,1.1473684310913086,0.1435736864805221,jumping
1761226570638289000,4.036972666330636,-3.920816768673062,-1.5104080700814724,-3.007925510406494,0.8010503053665161,0.4748721420764923,jumping
1761226570648303000,4.174833030796051,-2.7308038510292767,-0.3058265288591384,-2.626173734664917,0.1507513672113418,0.8011897802352905,jumping
1761226570658315800,4.117666789984703,-1.3355723121792078,0.6812333744227885,-2.071605920791626,-0.5122460722923279,1.1716578006744385,jumping
1761226570668329000,3.633819151185453,0.3368921137303113,1.096464865374565,-1.4384918212890625,-1.0860729217529297,1.4776562452316284,jumping
1761226570678343200,2.558135208033025,1.768618276762962,1.3971516932576893,-0.8299246430397034,-1.5320852994918823,1.682773232460022,jumping
1761226570688355800,1.081871034289524,2.5772528732180597,1.970442579355836,-0.307335764169693,-1.8247573375701904,1.8042069673538208,jumping
1761226570698370000,-0.2631306388836353,3.1694664864510296,2.741229967975616,0.1486032009124755,-1.893993854522705,1.8306455612182615,jumping
1761226570708383000,-1.6508020446777345,3.557096269249916,3.291711640894413,0.4246398210525512,-1.7746347188949585,1.7358916997909546,jumping
1761226570718396000,-2.5651371957495805,3.5005046134561297,4.020563675582409,0.3762766420841217,-1.6406737565994265,1.5526303052902222,jumping
1761226570728410000,-2.856394516508281,3.3258962345689533,6.068527886036038,0.0770635977387428,-1.5908819437026978,1.3198816776275637,jumping
1761226570738423000,-2.671262405519187,3.078581515911221,8.316240761852264,-0.3195706605911255,-1.4900130033493042,1.0918190479278564,jumping
1761226570748437000,-2.336164481729269,3.211640325313806,9.351284067058565,-0.7045849561691284,-1.2954994440078735,0.841095507144928,jumping
1761226570758450000,-1.954884652478993,3.459282376229763,9.146972623825071,-1.0431145429611206,-1.0448822975158691,0.608494758605957,jumping
1761226570768464100,-1.6958078920960424,3.663743457067013,8.44912889086306,-1.292393684387207,-0.7354581952095032,0.4062367677688598,jumping
1761226570778477000,-1.2722973792292176,4.064516799077391,7.653902057513594,-1.4695580005645752,-0.3086562156677246,0.2584918439388275,jumping
1761226570788490000,-0.818932556977123,4.4012849941670895,6.598939999872446,-1.5282388925552368,0.0465809777379035,0.186407521367073,jumping
1761226570798504200,-0.3176794272055849,4.664987368524074,5.967621872219443,-1.4152377843856812,0.2717987895011902,0.1428662985563278,jumping
1761226570808516900,0.2196877299331128,4.337907039234042,5.285291350209713,-1.2019590139389038,0.3804914951324463,0.1163108572363853,jumping
1761226570818531000,0.7399893686436116,3.7050288226574657,4.874890932676196,-0.9323254823684692,0.4644117057323456,0.0873796492815017,jumping
1761226570828544000,1.04626846357584,3.207405464223027,4.742413722553849,-0.6507851481437683,0.5876740217208862,0.0319278389215469,jumping
1761226570838557000,1.1346928892210126,2.7895073844105003,4.410541482812166,-0.3873068392276764,0.6618499755859375,-0.0375351384282112,jumping
1761226570848571100,1.071811485633254,2.232606492099166,4.425194277542829,-0.119589626789093,0.5433315634727478,-0.1349391937255859,jumping
1761226570858583800,0.9826699977599084,1.400337922078371,4.613299266862869,0.1754003763198852,0.1418802589178085,-0.3024522662162781,jumping
1761226570868598000,0.7773343260452151,0.3271124779939651,4.717759758290648,0.4304569065570831,-0.3863358795642853,-0.5318218469619751,jumping
1761226570878611200,0.4262712828170508,-1.0127116464108228,4.353302761286497,0.5852884650230408,-0.9871001839637756,-0.7076528668403625,jumping
1761226570888623900,0.2091899359900504,-2.01103704007268,3.356165116104483,0.731711208820343,-1.5041837692260742,-0.8230249881744385,jumping
1761226570898638000,0.3427602385787293,-2.73411750562191,1.0011679236114024,0.9135897755622864,-1.5755091905593872,-0.8638032674789429,jumping
1761226570908651000,0.2585742176882922,-3.5772371400028464,-3.072670246040821,1.1814802885055542,-1.129955172538757,-0.8178397417068481,jumping
1761226570918665000,-0.5489401060326025,-3.452127828299999,-7.55487820418179,1.6182690858840942,-0.2683727741241455,-0.6911417245864868,jumping
1761226570928678100,-1.6678600008539854,-2.9687738182365893,-11.855952181059122,2.139681339263916,0.7364245653152466,-0.6417211890220642,jumping
1761226570938692000,-2.6392060560449955,-3.980763580113649,-14.341467850822209,2.6440746784210205,1.6122997999191284,-0.8114663362503052,jumping
1761226570948705000,-4.590422833666205,-5.194805608120561,-14.332846152949331,3.0440821647644043,2.555762767791748,-1.04714035987854,jumping
1761226570958718000,-4.740008707238734,-6.98832685547173,-12.983472694432734,3.193153142929077,3.320418357849121,-1.1180105209350586,jumping
1761226570968732200,-2.4239038477197288,-8.400196809911728,-9.997526792120931,2.885948419570923,2.8424675464630127,-0.9026651978492736,jumping
1761226570978745000,1.4328298864908515,-8.952761718845366,-4.202317834571003,2.2216098308563232,0.9183236360549928,-0.5998417735099792,jumping
1761226570988759000,5.231897029152512,-10.315134944188594,2.125101518408954,1.5036765336990356,-1.3902074098587036,-0.4703288078308105,jumping
1761226570998772000,5.807228481167554,-10.83410036585927,4.463622500136494,0.985376238822937,-2.539034366607666,-0.4491839110851288,jumping
1761226571008785000,3.0330557362720367,-9.449646241611244,0.5974634965851903,0.681662380695343,-2.3757035732269287,-0.3319017589092254,jumping
1761226571018799000,0.8325836273193359,-7.639219452166557,-5.41174330869317,0.4750303924083709,-1.2526310682296753,-0.1557954400777816,jumping
1761226571028812000,-0.5660797126103192,-5.792706619340181,-9.485313182798029,0.2583036720752716,0.4715740084648132,-0.0262081529945135,jumping
1761226571038826000,-1.642414155560732,-4.727711243462562,-11.371936492216586,-0.0720710232853889,2.0286760330200195,0.0624816305935382,jumping
1761226571048839200,-1.557600321628153,-4.447449948492646,-10.170180529808995,-0.4927639365196228,3.0962283611297607,0.1648434102535247,jumping
1761226571058851800,-0.7431934984471649,-4.09577761425972,-6.5645490699708455,-0.9431962370872498,3.622807502746582,0.296970009803772,jumping
1761226571068866000,-0.2117152166839689,-2.580722595155239,-2.22010298435688,-1.324037790298462,3.497018575668335,0.3647423982620239,jumping
1761226571078879200,-0.403525198001787,-0.9453945984631776,2.1516657002076505,-1.5073206424713137,2.693830966949463,0.3300154209136963,jumping
1761226571088893000,-0.5420723026223481,0.0544160653203725,5.5994239351212975,-1.424173355102539,1.703095555305481,0.3488511741161346,jumping
1761226571098906000,0.6571136631667613,1.017355088302493,7.076527701494097,-1.2190873622894287,0.2200950682163238,0.3602449297904968,jumping
1761226571108920000,0.291953121003136,2.972438770484924,7.245829790666699,-0.9042279720306396,-1.2207906246185305,0.4391511976718902,jumping
1761226571118933000,0.6696207511056215,4.124178363835811,6.991456970191002,-0.5539460778236389,-2.089294910430908,0.5889189839363098,jumping
1761226571128946200,1.1994174364574253,4.601139457991719,5.010242236930131,-0.1842153966426849,-2.3403444290161133,0.6857501864433289,jumping
1761226571138960000,-0.2264455701628699,5.349291236433387,2.582404849153757,0.1270507872104644,-2.085155487060547,0.6867262125015259,jumping
1761226571148973000,-1.5822680221557617,5.435822103416919,0.8618120598912239,0.367376297712326,-1.4946603775024414,0.5354935526847839,jumping
1761226571158987000,-2.789435195957124,5.178444840428233,0.122993342462182,0.4859041571617126,-0.805148184299469,0.3058178424835205,jumping
1761226571169000000,-3.607643091921508,4.836923313331604,0.656534401974082,0.4280872046947479,-0.3171325027942657,0.009960351511836,jumping
1761226571179013000,-3.599594225500524,4.702248300904035,2.6699486925721168,0.1638762652873993,-0.2044802606105804,-0.3049683272838592,jumping
1761226571189027000,-3.0073157303377984,4.583441888737679,5.524000737607479,-0.2474889159202575,-0.2824312746524811,-0.5513557195663452,jumping
1761226571199040000,-2.068509716484696,4.774027004435658,7.636216178697347,-0.6564950346946716,-0.4013137519359588,-0.698758065700531,jumping
1761226571209054000,-1.0473207491077483,5.223124524632096,8.109588892972468,-0.9521573185920716,-0.5297403931617737,-0.722816526889801,jumping
1761226571219067000,-0.1244256037550047,5.746644540867209,7.226745150968432,-1.0650877952575684,-0.6354873180389404,-0.6117231845855713,jumping
1761226571229080800,0.9559976794116198,6.182168293741345,5.450410600739717,-1.0026187896728516,-0.6599740386009216,-0.4061362147331238,jumping
1761226571239094000,1.6622693412400782,6.43242432654798,3.2672365403294563,-0.8004813194274902,-0.6211056113243103,-0.1819054186344146,jumping
1761226571249107000,1.7849185464397073,6.433185374048352,1.291132866472006,-0.4338836669921875,-0.4062111675739288,-0.026827685534954,jumping
1761226571259121000,1.0873186321709305,5.998710837966203,-0.9489210190236568,0.0608451254665851,-0.0872682109475135,0.0760242193937301,jumping
1761226571269134000,0.0148123326739296,5.499165571558475,-2.899654104781151,0.5872029662132263,0.2058707177639007,0.1528572291135788,jumping
1761226571279147800,-0.4552352557664736,5.142133756119012,-3.685090196478367,1.0368448495864868,0.5061168074607849,0.1647453159093856,jumping
1761226571289161000,-0.8172255338635295,4.82156266259253,-3.496388994830846,1.269296407699585,0.7841907739639282,0.0848390311002731,jumping
1761226571299174100,-1.4244526648983358,4.358959179612994,-2.398414893937111,1.2322800159454346,1.0173250436782837,-0.0331295803189277,jumping
1761226571309187800,-1.9261894500009715,3.7971114785492417,-0.5964315231889485,0.9507650136947632,1.2506494522094729,-0.16934335231781,jumping
1761226571319201000,-2.168373381641507,3.2048125251203774,1.061937741872668,0.5135699510574341,1.39569091796875,-0.2697904109954834,jumping
1761226571329215000,-2.1819202609568835,2.876767734712362,2.3646721988111734,0.109884575009346,1.4072636365890503,-0.2996870577335357,jumping
1761226571339228000,-1.8539318769112227,2.714278248164057,2.789789708483219,-0.2075927257537841,1.2894655466079712,-0.2580772340297699,jumping
1761226571349241900,-1.444527192416787,2.79749019985795,2.5788953797280785,-0.4374118149280548,0.9176391959190368,-0.1621184945106506,jumping
1761226571359255000,-0.9112732792831956,2.4882693523854016,2.164472867071628,-0.5796685814857483,0.419870525598526,-0.0549200735986232,jumping
1761226571369268000,-0.5232650185607374,1.389229668086767,1.2180442493855952,-0.704257071018219,-0.0519843585789203,0.0235438421368598,jumping
1761226571379282000,-0.5042522019896656,0.1697264520645141,-0.0945662894010543,-0.746641218662262,-0.3024310767650604,0.0881882831454277,jumping
1761226571389294800,-0.3263991420928389,-0.3007388503313064,-1.074106903094053,-0.7218301296234131,-0.0366017818450927,0.1974189132452011,jumping
1761226571399308800,0.2530509242221713,-0.6934200713008641,-2.442296121239662,-0.6259586811065674,0.2611233294010162,0.3163859844207763,jumping
1761226571409322000,1.2433226291574535,-1.1246259609758853,-3.7153444649666554,-0.4795407950878143,0.3015032410621643,0.4175671935081482,jumping
1761226571419335000,1.3662266859009862,-1.027249290329218,-4.597645770657063,-0.349944919347763,0.1966011822223663,0.5337516665458679,jumping
1761226571429348900,1.204973024757951,-1.783048953175545,-5.12951159043312,-0.2577904760837555,0.1613111048936844,0.6202778220176697,jumping
1761226571439362000,1.3319519297249611,-3.2797236814588304,-5.835646766400337,-0.0769572183489799,0.4114559590816498,0.6212656497955322,jumping
1761226571449375700,1.4044514948770404,-4.576173359039426,-7.488318112081289,0.1699151545763015,0.7342529892921448,0.403261125087738,jumping
1761226571459389000,0.7371334677558392,-4.781733925551176,-8.701471082293986,0.3472669422626495,0.9085432291030884,0.0334398448467254,jumping
1761226571469402000,-0.4153703879658132,-4.2336201508075,-8.36710819478035,0.459494411945343,0.8970474004745483,-0.2303944677114486,jumping
1761226571479415800,-0.0096836280159652,-4.191179185441136,-7.1362851278424255,0.5962793827056885,0.8897897601127625,-0.2640775740146637,jumping
1761226571489429000,1.83091369715631,-4.627382152751088,-6.23376520998776,0.6812722682952881,0.5960177779197693,-0.1267863065004348,jumping
1761226571499443000,3.428790791854262,-3.9481887597233056,-4.555021265417337,0.567369818687439,-0.109102688729763,0.2127938270568847,jumping
1761226571509456000,4.867316405768692,-2.8258091163694856,-1.7965560850024225,0.1725918799638748,-1.0784893035888672,0.7330516576766968,jumping
1761226571519470000,5.927409688818455,-2.024006411761045,1.0172533814936875,-0.3928795158863067,-1.8571025133132932,1.1774847507476809,jumping
1761226571529483000,4.963015206331014,-1.4833528898954391,2.642428232961893,-0.924890160560608,-2.286266565322876,1.381078600883484,jumping
1761226571539496000,2.104844181669504,-1.270949325621128,2.420603929391503,-1.314435362815857,-2.272686243057251,1.3211722373962402,jumping
1761226571549510000,-0.619101254832372,-1.6009095942616465,0.9122650667995214,-1.6209514141082764,-1.836767077445984,1.0284868478775024,jumping
1761226571559522800,-2.725255276991427,-1.6055366695404052,-0.7791805384337902,-1.874577879905701,-1.1021366119384766,0.6348576545715332,jumping
1761226571569537000,-4.11262791903466,-0.965655296203494,-1.5492495496511458,-2.037904500961304,-0.1401224583387375,0.2716903388500213,jumping
1761226571579550000,-4.308282593081891,-0.0587064559906721,-1.916265583488345,-2.0702695846557617,0.8215327262878418,0.0193878039717674,jumping
1761226571589564000,-3.873800458215177,1.104502625879645,-1.892447485527396,-1.959426760673523,1.592353582382202,-0.080881543457508,jumping
1761226571599576800,-2.7340497010827063,2.197545115590096,-1.277598846638203,-1.8135995864868164,1.9033305644989011,-0.0602810122072696,jumping
1761226571609590000,-1.2529179943680762,3.003250088334084,0.5536334149479866,-1.6646345853805542,1.7639527320861816,0.0768430233001709,jumping
1761226571619604000,0.1742986553508788,3.535180205518007,2.8097259965747594,-1.510573148727417,1.280259132385254,0.2410182207822799,jumping
1761226571629617000,1.3324429281122985,3.669487553676962,4.777397942173481,-1.344180464744568,0.6021360158920288,0.3401711583137512,jumping
1761226571639631000,1.67642602301687,3.5174843898296357,6.023800271037221,-1.1754685640335083,-0.1510286331176757,0.394776314496994,jumping
1761226571649643800,1.5919032809853553,3.240826672309637,6.191009771844744,-0.9555668234825134,-0.6194770932197571,0.489664226770401,jumping
1761226571659657000,1.7267213551454246,3.1168162617594,4.896331780111789,-0.6652393937110901,-0.6385068297386169,0.6148595213890076,jumping
1761226571669671200,1.6965158942349254,3.016407676070928,2.45404793383181,-0.3637826144695282,-0.263427734375,0.7151104807853699,jumping
1761226571679683800,0.9896285847261548,3.0017408528149128,0.6759124716609716,-0.1044574603438377,0.3646151423454284,0.7989116907119751,jumping
1761226571689698000,0.1816121019030921,3.1251714176505803,-0.2581272045731544,0.1353098601102829,1.0903806686401367,0.8711792230606079,jumping
1761226571699710700,-0.1971695721222087,3.203862092527747,-0.551004820010066,0.3482414782047272,1.704189658164978,0.8812448382377625,jumping
1761226571709724000,-0.5822184350498021,3.142466251322627,0.012512275570631,0.4968328177928924,2.047560214996338,0.8491985201835632,jumping
1761226571719738000,-1.1002137695793062,2.964227406978607,1.680087175872922,0.6053413152694702,2.1423232555389404,0.7379289269447327,jumping
1761226571729750800,-1.6283881144262848,2.5005735381633043,3.663872051882744,0.705409049987793,1.9779242277145384,0.5500115156173706,jumping
1761226571739765000,-1.827167934756726,1.95331491894424,5.325493596738577,0.7374979853630066,1.5121934413909912,0.3316551446914673,jumping
1761226571749778000,-1.3941054574295877,1.446298878264427,6.946431249028444,0.7008917927742004,0.8254201412200928,0.1261586993932724,jumping
1761226571759791900,-0.9016507338047028,1.1258248153716326,8.064668385750055,0.3334413170814514,1.4886265993118286,0.0090368688106536,jumping
1761226571769805000,-4.129268964973092,0.6984212405890226,6.136577339911461,-0.0509614832699298,1.379437804222107,-0.4770203828811645,jumping
1761226571779818000,-10.800672728031874,-2.1369231813669205,3.240674112096429,-0.1648419797420501,0.0191401168704032,-0.7628992795944214,jumping
1761226571789832000,-5.558012312802672,-2.9320161592036484,8.484277945655585,-0.0294841527938842,-0.7770087122917175,-0.7283508777618408,jumping
1761226571799844900,-0.7224046121142804,0.9456278226971626,5.948706159347296,-0.0124086756259202,-1.1115808486938477,-0.5278484225273132,jumping
1761226571809859000,1.0431947552189231,3.174119280692935,2.8079665856868026,-0.1709871292114257,-1.0236395597457886,-0.1636305302381515,jumping
1761226571819872000,2.460743047556281,3.521460307723284,1.158310788434744,-0.3883141875267029,-0.0306923855096101,0.2326545119285583,jumping
1761226571829885000,3.164308665296435,3.68922451980412,-1.6721926232308149,-0.8391128182411194,-0.0706930607557296,0.620550274848938,jumping
1761226571839899100,4.286673695603013,3.414150856605172,-1.428618844667077,-1.4748297929763794,-1.2577002048492432,0.9365921020507812,jumping
1761226571849911800,4.87648550839126,1.0193032997608185,2.462272741341591,-2.028317451477051,-1.734702706336975,1.0980666875839231,jumping
1761226571859926000,2.2403356250464914,-1.9569348630070684,1.2398176897764206,-2.4216082096099854,-1.120439887046814,0.8460480570793152,jumping
1761226571869939000,-2.4413182161182165,-5.517927555173635,-3.549876254868507,-2.4291799068450928,-0.2754039466381073,0.2336006313562393,jumping
1761226571879953000,-6.062699618273973,-10.66561426924467,-7.058436164486408,-1.863348364830017,0.2118038982152938,-0.394278883934021,jumping
1761226571889966000,-5.762442413979769,-14.90958805628419,-10.42166990380287,-0.7517034411430359,0.5328037142753601,-0.8091737627983093,jumping
1761226571899978800,-2.9759704517424104,-14.922853196048736,-15.24582375193238,0.346526950597763,0.4194305837154388,-0.8756353855133057,jumping
1761226571909993000,-0.6290281900849193,-10.573263317805528,-19.62732852535248,0.8916459083557129,0.1851704120635986,-0.9541429877281188,jumping
1761226571920006100,-2.1627352296240625,-3.861975288125872,-20.294988132452964,1.0031445026397705,0.1885582208633422,-0.92732173204422,jumping
1761226571930019800,-2.446378129856288,-0.831255593585968,-19.679126517128942,1.0058934688568115,0.049606192857027,-0.6710146069526672,jumping
1761226571940033000,-0.7383612559851258,-1.390166072154045,-16.783797874331473,1.1174105405807495,-0.1060287430882453,-0.2611302435398102,jumping
1761226571950046000,0.9598749592363832,-2.632038940894604,-13.452819221931696,1.2011529207229614,-0.056732565164566,0.16446153819561,jumping
1761226571960060000,1.747196280158311,-3.1372113995343445,-10.026618446570634,1.050303339958191,0.021438019350171,0.5025124549865723,jumping
1761226571970073000,1.4598419581875204,-3.5838358076155186,-6.454241606080532,0.6880871057510376,0.137432262301445,0.7094102501869202,jumping
1761226571980087000,1.0474684870153663,-4.247338879558444,-2.8468799614489075,0.1358658224344253,0.2300000786781311,0.7143672704696655,jumping
1761226571990100000,0.7140494562231003,-4.1492385708123445,-0.8065987067133188,-0.5113579630851746,0.358709841966629,0.6657267212867737,jumping
1761226572000114000,0.0768350005405023,-3.4485277579814198,0.5203899015158414,-1.0405458211898804,0.0979300439357757,0.5571306347846985,jumping
1761226572010127000,0.0544895141490735,-3.545603984376788,1.760039833509922,-1.1892229318618774,0.0174557138234376,0.492910087108612,jumping
1761226572020140000,-0.4413040167760104,-2.6600445536732678,1.5569599778980017,-1.029481291770935,-0.1683474034070968,0.3036459386348724,jumping
1761226572030154000,-1.0627953816153108,-1.2826461931556463,0.6561269902169704,-0.6187626719474792,-0.343342125415802,0.1112764775753021,jumping
1761226572040167000,-1.4327343171618878,-0.1039583871245384,0.9943886387348174,-0.0793463438749313,-0.318029522895813,-0.0636912956833839,jumping
1761226572050180900,-0.2925798198004253,1.4900322215288877,0.3893821794241666,0.532474935054779,-0.3915021419525146,-0.2259829938411712,jumping
1761226572060194000,0.2454947914878837,3.2567508021503686,1.2559084083557128,1.0446197986602783,-0.3361180126667022,-0.3850221931934356,jumping
1761226572070208000,0.0601005224312655,4.427751560810208,2.5474878495514397,1.3735657930374146,-0.2923963665962219,-0.5634998083114624,jumping
1761226572080221000,-0.3636432694684713,5.77860853588283,4.1890725685507055,1.610749125480652,-0.2614971995353699,-0.6747548580169678,jumping
1761226572090234000,-0.6997665907833724,6.8980041949898,6.433323321214318,1.7653262615203855,-0.0267701651901006,-0.7021425366401672,jumping
1761226572100247800,-0.859789175761491,7.084718606734276,8.179408863651751,1.7776042222976685,0.3391389846801758,-0.644682765007019,jumping
1761226572110261000,-0.4241837724858894,7.313916653943061,9.116151953625678,1.5887104272842407,0.6138030290603638,-0.5493059158325195,jumping
1761226572120275000,-0.4990323849821463,7.891159492537379,10.43153897138834,1.1628196239471436,0.8631298542022705,-0.4340229630470276,jumping
1761226572130287900,-0.6038076049149036,8.156989526572824,11.657736132091284,0.6109657883644104,1.0400418043136597,-0.325199544429779,jumping
1761226572140301000,-0.5347376488853246,7.865380908158421,12.239462838101389,0.155720055103302,1.0754278898239136,-0.2115854322910308,jumping
1761226572150315000,-0.2478354545962065,7.665680173590779,11.881640749067069,-0.0443400703370571,0.9928233027458192,-0.1142271906137466,jumping
1761226572160332500,-0.0735933517381548,7.743208818951248,10.191557664358616,-0.02570166811347,0.7430521249771118,-0.0083678672090172,jumping
1761226572170346200,0.2107450564775616,8.12092569502294,8.473640231785177,0.0370623804628849,0.3538044989109039,0.0935326665639877,jumping
1761226572180359400,0.598301408714056,8.272516186416148,7.682247277510165,0.0749767422676086,0.0312365312129259,0.1946983784437179,jumping
1761226572190373400,0.7413948515273631,8.025563286808133,6.945213105410337,0.0648551285266876,-0.1161883473396301,0.2809222340583801,jumping
1761226572200386300,0.5728767523393035,7.69048319093585,5.966646305185556,0.0238445792347192,-0.1817201077938079,0.3423308432102203,jumping
1761226572210399500,0.2032101309280842,7.2131924264341585,5.07857986009717,-0.0164322704076766,-0.2194672226905822,0.3667488396167755,jumping
1761226572220413400,-0.0424345356255769,6.77125822199583,4.405623315632343,-0.0098969619721174,-0.2228369414806366,0.3493359982967376,jumping
1761226572230426400,0.0091843732569366,6.248335587131977,3.5993057639479638,0.0727140307426452,-0.219741016626358,0.3276820778846741,jumping
1761226572240440300,0.0332944764344021,5.672078252443671,2.678041982656717,0.2446523159742355,-0.1765327602624893,0.2754413485527038,jumping
1761226572250453200,-0.1698769299184903,5.063998961558938,1.8177607855945823,0.4689224362373352,-0.1821901202201843,0.1741285771131515,jumping
1761226572260467200,-0.6024469110209495,4.287638156720996,1.3375795603483915,0.652290940284729,-0.1699548363685608,0.0716396570205688,jumping
1761226572270480400,-0.7304998018950224,3.0253146206259727,1.4294085337400435,0.823847770690918,-0.1879021376371383,0.0758115053176879,jumping
1761226572280493300,-0.3457597857208922,1.0178490092992782,1.164077096876502,1.025742769241333,-0.1790091395378112,0.1932716965675354,jumping
1761226572290507300,0.5752548431148752,-1.4826689992845057,0.3792243580251931,1.1408722400665283,-0.3428547978401184,0.3569580912590027,jumping
1761226572300520400,1.4281323763243854,-4.118001721027493,0.1997100869178771,0.9514678716659546,-0.5733667016029358,0.4680157601833343,jumping
1761226572310534100,1.7244278373807669,-6.708921885070204,1.0161445434689522,0.3138346970081329,-0.4989444315433502,0.513076663017273,jumping
1761226572320547300,1.3384963829323648,-9.164224787399172,0.7002677452385425,-0.7184997797012329,0.0299256742000579,0.5432896018028259,jumping
1761226572330560500,0.566755127653852,-11.230203962492942,-1.7923738308817148,-1.82938814163208,0.7055240869522095,0.577724814414978,jumping
1761226572340574200,0.0991439908464439,-12.90086338480711,-5.954502862927317,-2.61773681640625,1.0611567497253418,0.6127418875694275,jumping
1761226572350587400,-0.1245980377124622,-12.934881389743088,-10.69886771954894,-2.7995433807373047,1.119509220123291,0.6239601969718933,jumping
1761226572360601300,-0.4385595769060775,-10.087066193270685,-15.082705904352665,-2.288861036300659,0.9186608791351318,0.5821323394775391,jumping
1761226572370614300,-0.281583008560352,-7.193537877893448,-18.917939900547264,-1.1987059116363523,0.686124861240387,0.508836030960083,jumping
1761226572380628200,0.1754824583079665,-6.585856646415591,-21.79841116595268,0.275309145450592,0.2589989602565765,0.4550630152225494,jumping
1761226572390641400,0.8694377324640751,-7.85501382792294,-21.77319956780672,1.4807757139205933,-0.0241075567901134,0.5048814415931702,jumping
1761226572400654300,2.037656605320424,-9.39091874283254,-19.23239514154196,1.9889496564865112,-0.0804947391152381,0.4889546036720276,jumping
1761226572410668300,1.7284177837997674,-9.740371647450328,-14.826339279711243,1.969332218170166,-0.0222655180841684,0.3819341361522674,jumping
1761226572420681200,0.3214570095155388,-10.485469299018382,-9.353152199018002,1.568171143531799,-0.0540154017508029,0.2449483871459961,jumping
1761226572430695200,0.083333787975274,-10.342813224709031,-4.260485945901275,0.9886839985847472,-0.1450997740030288,-0.0090284962207078,jumping
1761226572440708400,-0.2179250676421448,-9.090763245347144,-0.3421662547409534,0.4289112091064453,-0.2450553774833679,-0.2521844208240509,jumping
1761226572450722300,-0.7744929651394487,-6.998533192187547,2.0504653796195984,-0.0677675381302833,-0.3601729273796081,-0.4865463376045227,jumping
1761226572460735200,-1.2796183697670698,-5.080048763605952,3.335370749878883,-0.4329503178596496,-0.4657466411590576,-0.6667497754096985,jumping
1761226572470748400,-1.5541583644807335,-3.077404873347282,4.3020846152246,-0.697561502456665,-0.4919151365756988,-0.7716255784034729,jumping
1761226572480762400,-1.487027925146371,-0.5041057061910629,4.669749468359351,-0.8617446422576904,-0.4269530177116394,-0.795848548412323,jumping
1761226572490775300,-1.247625294787437,1.85318164306581,4.707491462254524,-0.8747536540031433,-0.2692355811595917,-0.7121299505233765,jumping
1761226572500789500,-0.6735602094464004,3.643625967189669,4.169987928852438,-0.7093611359596252,-0.2388651371002197,-0.5170490741729736,jumping
1761226572510802200,0.0230680467786267,5.243195252758264,3.393756887874007,-0.3504325151443481,-0.2569943368434906,-0.2965401709079742,jumping
1761226572520815400,0.303869622637704,6.503445489710569,2.834686250308156,0.0841850638389587,-0.1988989263772964,-0.0516692996025085,jumping
1761226572530829300,0.1701204198181629,7.389615745788812,2.5838755062282086,0.4787933826446533,-0.0054969717748463,0.1426125615835189,jumping
1761226572540842200,-0.2355347394170239,7.561491484841704,2.705976868286729,0.7292135953903198,0.1629648208618164,0.2531548738479614,jumping
1761226572550856400,-0.6749854199439287,7.412974994066357,3.6082635619074095,0.781123161315918,0.319298505783081,0.3375983834266662,jumping
1761226572560869400,-0.5112767668642103,7.659629202988743,5.168393402013183,0.6911849975585938,0.4703424870967865,0.3893269896507263,jumping
1761226572570883300,-0.0869606367029249,7.486269947379827,6.544879323861003,0.4977846145629883,0.5147677063941956,0.3705160319805145,jumping
1761226572580896300,-0.1121312087187543,6.963629636588692,7.830410717064142,0.290026992559433,0.5939661264419556,0.3118441700935364,jumping
1761226572590909200,-0.3260851077076047,6.73703563439846,8.29157218454182,0.1206169202923774,0.6181170344352722,0.2513233125209808,jumping
1761226572600923400,-0.3447191175615415,6.716038439077138,8.022783885222672,-0.0387565717101097,0.5284404754638672,0.1823983192443847,jumping
1761226572610936300,-0.1967551095698028,6.729266169440746,7.77782069812715,-0.2319119125604629,0.3714750707149505,0.0745166018605232,jumping
1761226572620950300,-0.1420372117586433,6.491067069652676,7.15785457009375,-0.3912486433982849,0.1333515346050262,-0.0040095318108797,jumping
1761226572630963200,0.1773653494451195,6.76517744077742,6.128150872349739,-0.4862342774868011,-0.1858056783676147,-0.0435857027769088,jumping
1761226572640977400,0.2986738806255161,7.21005822006166,5.365369680052996,-0.5029436945915222,-0.4784478843212127,-0.0698710307478904,jumping
1761226572650990300,0.1553627034083008,7.415983528232574,4.556379109767079,-0.3969573080539703,-0.5468626022338867,-0.0931851416826248,jumping
1761226572661003300,-0.0424673419166356,7.736123829126358,3.430014196169376,-0.1904131174087524,-0.5014471411705017,-0.096965417265892,jumping
1761226572671017500,-0.3051887424122542,7.827567602592707,2.262638057747483,0.0828804671764373,-0.3177774548530578,-0.1017439290881156,jumping
1761226572681030400,-0.5941559429397806,7.789884060886502,1.3610124583840368,0.3236316740512848,-0.0703055113554,-0.1131105422973632,jumping
1761226572691044400,-0.9252566503196954,7.487973828688263,1.1514064158737658,0.5131807923316956,0.2182399928569793,-0.1415959745645523,jumping
1761226572701057500,-1.1042192788936198,7.119080310541391,1.4292764317929745,0.6577617526054382,0.4425393044948578,-0.1552740335464477,jumping
1761226572711071200,-1.056441044152528,6.961354092872142,1.9602689758658407,0.7055764198303223,0.5697422623634338,-0.1547813415527343,jumping
1761226572721084400,-0.8606848824921995,6.708287094298004,2.780795085644722,0.7200090885162354,0.5184177160263062,-0.1826666295528412,jumping
1761226572731097300,-0.5999399331687018,6.219414613074064,3.4994074658691883,0.7412949204444885,0.3149162530899048,-0.238116830587387,jumping
1761226572741111300,-0.4722152148030698,5.503864543029666,4.081631600007414,0.7731451988220215,0.0645511820912361,-0.2911821901798248,jumping
1761226572751124500,-0.4791375614121556,4.520805692082643,4.5114451585412025,0.7681219577789307,-0.1596395820379257,-0.2864191234111786,jumping
1761226572761138400,-0.4118175543224439,2.970587589660287,4.982480954301357,0.6752246618270874,-0.3206329047679901,-0.2578496634960174,jumping
1761226572771151400,-0.1828421368883922,0.6406728159755468,5.360155744796991,0.440796434879303,-0.4858778119087219,-0.0901983603835105,jumping
1761226572781165300,0.7747613337520509,-2.444319736021757,5.455858929273486,0.0436877012252807,-0.6455292105674744,0.1935947388410568,jumping
1761226572791178200,2.027423234467208,-6.012661037385463,5.300302456858754,-0.4916332364082336,-0.6682731509208679,0.450141042470932,jumping
1761226572801191400,2.233874904599786,-9.227649504083397,4.574662369954586,-1.1369969844818115,-0.4314492344856262,0.545925498008728,jumping
1761226572811205400,1.0494656521819532,-11.05795471395254,2.665917245098948,-1.8940242528915403,-0.0580434426665306,0.4784306287765503,jumping
1761226572821218300,-0.1295522991189733,-12.032661331617833,-0.9322188905477524,-2.658488750457764,0.3823382258415222,0.3002931475639343,jumping
1761226572831232300,-0.5022580324977636,-12.514725886392592,-5.592583859968185,-3.2589340209960938,0.7853653430938721,0.0617562122642993,jumping
1761226572841245400,-1.076487076228857,-10.997015968865156,-10.493208368837832,-3.574364185333252,0.8418818712234497,-0.2053910493850708,jumping
1761226572851258400,-1.705988655979186,-8.242254903665184,-14.894763412117957,-3.4436252117156982,0.724707841873169,-0.4431610107421875,jumping
1761226572861272300,-1.497653071796149,-5.856349362689256,-18.277681510591503,-2.6793055534362797,0.620627760887146,-0.6036822199821472,jumping
1761226572871285500,-0.8560279235318302,-5.004927179387211,-21.469264551782608,-1.3725430965423584,0.4758631587028503,-0.5777190923690796,jumping
1761226572881299200,0.3139127316158264,-5.911598371702432,-22.70172661809921,0.0494140312075614,0.2988657653331756,-0.4019727706909179,jumping
1761226572891312400,1.4868112136557698,-7.197536007618904,-20.61561007938385,1.0238007307052612,0.1310514658689499,-0.2832668721675873,jumping
1761226572901326300,1.308502665076405,-7.546638199102878,-15.551950725042818,1.3564555644989014,0.0445588193833828,-0.2760538160800934,jumping
1761226572911339300,0.4152019725963473,-7.733006573888659,-8.970851502287386,1.1641907691955566,0.0700479373335838,-0.2983857691287994,jumping
1761226572921352400,0.0479709077689796,-8.311894257080555,-3.18720146510601,0.6438354849815369,0.2078609615564346,-0.24845652282238,jumping
1761226572931366400,0.2052186212062835,-8.011863847279548,0.6754559600651264,0.0004168392624706,0.4461920261383056,-0.1695089638233184,jumping
1761226572941379300,0.2671359290022402,-6.363937650299072,2.6403590254724025,-0.6186286211013794,0.5474286079406738,-0.139382779598236,jumping
1761226572951393300,0.1249385582458227,-4.443744079712033,3.7118940322518346,-1.0559545755386353,0.4110963642597198,-0.1815757751464843,jumping
1761226572961406200,-0.0620147037558257,-2.926468461948633,4.217625878340006,-1.1411138772964478,0.109759397804737,-0.2374001741409301,jumping
1761226572971420400,0.1129113627783954,-1.2260247267454862,3.643665714678168,-0.8790945410728455,-0.0729385167360305,-0.3266629576683044,jumping
1761226572981433300,-0.1564500602535903,0.4183545914083719,2.4520564677536485,-0.715196967124939,-0.2201323509216308,-0.4399453699588775,jumping
1761226572991446300,-0.9246314310934394,1.4001947142153977,2.287285007748008,-0.6578415036201477,-0.3523018360137939,-0.4949883818626404,jumping
1761226573001460200,-1.028311220472306,2.350706801822781,2.913655742126703,-0.6058593988418579,-0.4912804365158081,-0.4532539248466491,jumping
1761226573011473400,-0.4774476355638354,3.729623750209808,3.325792189672589,-0.4830282926559448,-0.5421303510665894,-0.301063597202301,jumping
1761226573021487400,0.2047018307905644,4.489619111180305,3.198237238383293,-0.3062071800231933,-0.5818610191345215,-0.1019812449812889,jumping
1761226573031500300,0.8424086365673691,4.6349242386937135,3.218054868531227,-0.1462561339139938,-0.6397762298583984,0.0741157531738281,jumping
1761226573041514500,1.0459720379125326,4.936207863426208,3.665635554423928,-0.0160135328769683,-0.7432055473327637,0.204085886478424,jumping
1761226573051527200,0.8843411409549414,5.351089225766063,4.335121792429685,0.1705297082662582,-0.6932010054588318,0.2667924165725708,jumping
1761226573061540400,0.7575100469607859,5.291892355909943,4.699923072826862,0.4208936691284179,-0.624911367893219,0.1906135827302932,jumping
1761226573071554300,0.3333322292916476,5.537448832723498,4.528127413272857,0.6273717284202576,-0.4689275920391083,0.1012829095125198,jumping
