timestamp,acc_x,acc_y,acc_z,gyr_x,gyr_y,gyr_z,activity
1761226605763839700,-0.225502919017896,0.0200736507356166,-1.1365841097950935,-0.0381772108376026,0.1761756986379623,0.1109699755907058,jumping
1761226605773853700,-0.4449416791586205,0.0302554375320672,-0.9083703974485396,-0.0308479219675064,0.2248598933219909,0.1104048565030098,jumping
1761226605783867000,-0.5755159052038565,-0.0461783983290195,-0.3866667829856276,-0.0520940050482749,0.2392556220293045,0.1011938005685806,jumping
1761226605793879800,-0.5788393870707601,-0.187192550650239,0.0743257576659321,-0.0880221799015998,0.1902689039707183,0.0816105157136917,jumping
1761226605803892700,-0.5299552734469994,-0.2771218279004097,0.4641051197141408,-0.1143062487244606,0.1450785249471664,0.0676462277770042,jumping
1761226605813905700,-0.5221760542802513,-0.260824773094058,0.53702831710577,-0.135018453001976,0.1292548179626464,0.0496134348213672,jumping
1761226605823919900,-0.5811216527890414,-0.2168582055956125,0.4170923163875937,-0.1420962959527969,0.1311777383089065,0.0372818000614643,jumping
1761226605833932800,-0.6759590142164379,-0.1603881303548812,0.2762219564512372,-0.1303107440471649,0.1397187560796737,0.036721471697092,jumping
1761226605843945700,-0.6414303563445806,-0.0259814134746789,0.1382765440508723,-0.122255764901638,0.1669376790523529,0.0383905433118343,jumping
1761226605853959000,-0.5712385932108387,-0.0833007990211248,0.1398924548149109,-0.1305632293224334,0.2020922005176544,0.0473169237375259,jumping
1761226605863971600,-0.4755662057314068,-0.1024415528208017,0.2230950541585683,-0.1525393724441528,0.2036322653293609,0.0443083196878433,jumping
1761226605873985800,-0.5019396507309749,-0.1335813719719648,0.3757113814681768,-0.1850613504648208,0.2421599477529525,0.027773018926382,jumping
1761226605883999000,-0.5605690594300627,-0.2842524104326963,0.567116581377387,-0.2344854772090912,0.1783448457717895,-0.0140766147524118,jumping
1761226605894011600,-0.7301712275277823,-0.3904670520514249,0.759141374489665,-0.2630340158939361,0.01416602358222,-0.093126431107521,jumping
1761226605904024800,-0.7448817437950521,-0.3092980043619871,1.0747668283075094,-0.2724640965461731,-0.1048373952507972,-0.1585267931222915,jumping
1761226605914037800,-0.6276275295067578,-0.2687543970495462,0.8198746601328253,-0.2659119367599487,-0.2266338765621185,-0.1894285231828689,jumping
1761226605924051700,-0.4322174413377418,-0.138418875131011,0.5416702976927161,-0.2137992680072784,-0.2778120636940002,-0.1918082982301712,jumping
1761226605934065000,-0.210162616947107,0.1125444291621446,0.1282306585937738,-0.1251122802495956,-0.2325463443994522,-0.1655932068824768,jumping
1761226605944077800,-0.1382600313074886,0.2791483652919531,-0.5396215484693646,-0.0280869714915752,-0.1687183827161789,-0.1492436081171035,jumping
1761226605954090800,-0.2979517768960446,0.2501034725934267,-0.8363087853223085,0.0558910183608531,-0.0754270628094673,-0.1603777557611465,jumping
1761226605964103700,-0.4769506092945113,0.2299462352275848,-0.8866644693359732,0.0843120589852333,0.0147244362160563,-0.175795778632164,jumping
1761226605974117600,-0.5310245831789449,0.2127373262733221,-0.7191156535714864,0.0600546486675739,0.1148084253072738,-0.1814733743667602,jumping
1761226605984130800,-0.4580473540451377,0.0693283877700567,-0.3415045759618282,0.0093233892694115,0.1814787834882736,-0.1737339794635772,jumping
1761226605994143700,-0.2174878452686592,0.0100742347687482,-0.0622729163005948,-0.0567091554403305,0.1419990211725235,-0.1426056176424026,jumping
1761226606004157000,0.0636923911770805,0.0253664964467287,0.4528504429891705,-0.1232544630765914,0.0608355142176151,-0.1128487437963485,jumping
1761226606014170600,0.2632586857100948,-0.0695277097344398,0.7360539288908243,-0.1827039420604705,-0.0163791142404079,-0.0721644312143325,jumping
1761226606024183800,0.4180588233321904,-0.0757002608895301,0.8737526730537414,-0.2125448435544967,-0.0660225376486778,-0.0249063484370708,jumping
1761226606034196700,0.4410600519523024,-0.0909936916112899,0.6294146321192383,-0.2202949076890945,-0.0875597894191742,0.0148091055452823,jumping
1761226606044209700,0.352057241897285,-0.0723445207208395,0.3200631440043449,-0.2089243233203888,-0.0745357871055603,0.0415990203619003,jumping
1761226606054222800,0.2089843304153531,-0.0057633858323097,0.0244651636928319,-0.1878424733877182,-0.0404965914785862,0.0822127535939216,jumping
1761226606064236800,0.1589342782847583,0.1432984638661146,-0.2148231926366686,-0.1508548557758331,0.051117930561304,0.1313184052705764,jumping
1761226606074249700,0.1868032590717077,0.2162719301402568,-0.4275204791605472,-0.1304457187652588,0.1579362452030182,0.1593572199344635,jumping
1761226606084263000,0.0799884230701252,0.1258101534485816,-0.5575570181325078,-0.1181228086352348,0.2272079437971115,0.1370537430047989,jumping
1761226606094275800,-0.2872168131962418,-0.0414665673762559,-0.4477744548991322,-0.0903833210468292,0.226123496890068,0.074951484799385,jumping
1761226606104288800,-0.5988276245452463,-0.0885720174223184,-0.2653781986147165,-0.0314669907093048,0.1984278857707977,0.0098517760634422,jumping
1761226606114303000,-0.6310172450102866,-0.0468657960712909,-0.2361640868291258,0.036669984459877,0.1403246223926544,-0.0231037754565477,jumping
1761226606124315600,-0.4287829368444159,-0.0256131646841764,-0.2510486444890499,0.0865323543548584,0.0485832169651985,-0.0351468920707702,jumping
1761226606134328800,-0.1507011778706684,0.001987958946824,-0.0500946949899196,0.1080379113554954,-0.0121256690472364,-0.0334943979978561,jumping
1761226606144341800,-0.0614119520897045,-0.0170464118689298,0.0058124856710433,0.0907149836421012,-0.0274658035486936,-0.0400730296969413,jumping
1761226606154354700,-0.099676362423785,0.0534726469904184,0.0528705894440412,0.0778244882822036,0.0183347091078758,-0.0518697686493396,jumping
1761226606164369000,-0.1903529143773019,0.0612906272649765,0.0047702831417322,0.0622727386653423,0.0608204156160354,-0.0679661110043525,jumping
1761226606174381800,-0.3134782126560807,0.0346773456275463,-0.1079933417290449,0.0664813369512558,0.0656623095273971,-0.1029752269387245,jumping
1761226606184394800,-0.4276815880063921,0.0305921221405267,-0.0734352385669946,0.0756066218018531,0.0449768938124179,-0.1548161804676056,jumping
1761226606194408000,-0.4888192166667431,0.1060293481796979,-0.027275544938445,0.0796836540102958,0.016335129737854,-0.1788512170314788,jumping
1761226606204420900,-0.3918506884295493,0.3219797912806272,-0.0376671750932931,0.0899621620774269,0.0125271473079919,-0.1489091962575912,jumping
1761226606214434800,-0.1756632947675883,0.4421335264027118,-0.1226964053422212,0.0918942838907241,0.026287168264389,-0.1016873568296432,jumping
1761226606224448000,0.0098234748780727,0.3418821771025657,-0.0964618938893079,0.102537527680397,0.0655956640839576,-0.0650832951068878,jumping
1761226606234461000,0.0883682384785264,0.1413145965725183,-0.0515454783201217,0.1329178065061569,0.15131776034832,-0.0412144474685192,jumping
1761226606244473900,-0.0308398132912814,0.0158645086079835,-0.2992395516842603,0.1636823415756225,0.1910552084445953,-0.0418356321752071,jumping
1761226606254486800,-0.1930477794844657,-0.0378770184516906,-0.3184598004609346,0.1695830971002578,0.1759042292833328,-0.0674416571855545,jumping
1761226606264500700,-0.3124590256761759,-0.0792062231838703,-0.0478536380648612,0.1589945703744888,0.1352347582578659,-0.0978630036115646,jumping
1761226606274514000,-0.3154407449007034,-0.101952307999134,0.2743517786651849,0.1265277117490768,0.0269852466881275,-0.1118451356887817,jumping
1761226606284526800,-0.2084444513849914,-0.1186708030879497,0.6811778448432684,0.0886503681540489,-0.0805217772722244,-0.1065829917788505,jumping
1761226606294540000,-0.0768299955718219,-0.1096779338151216,0.7908961106687784,0.0484688580036163,-0.1427049934864044,-0.0771912783384323,jumping
1761226606304552700,0.0642301147829741,-0.0122515788078308,0.6823606248870492,0.0306789223104715,-0.1390731185674667,-0.0205079279839992,jumping
1761226606314567000,0.1898199034791439,0.1075987894535064,0.3684121643707156,0.007845776155591,-0.1371308714151382,0.0322245247662067,jumping
1761226606324579800,0.1892453915268182,0.0658119040817022,0.1814066607251763,-0.0041504092514514,-0.1413683444261551,0.0751900002360344,jumping
1761226606334592800,0.1105725445672869,-0.0386918419659137,0.2477294369384646,-0.0497898012399673,-0.1228908002376556,0.0924299731850624,jumping
1761226606344606000,0.0040873423788696,-0.1258773734658956,0.3733668641686439,-0.1213252171874046,-0.0939415171742439,0.1037901565432548,jumping
1761226606354619000,-0.0650450844276696,-0.0708387923330068,0.5727206849947571,-0.1891862899065017,-0.049267791211605,0.1219177618622779,jumping
1761226606364632800,-0.1342052029587328,-0.0443663804709911,0.6039338616430759,-0.2327376753091812,-0.0240513961762189,0.1473922133445739,jumping
1761226606374646000,-0.1113992046497762,0.0162988083720207,0.5418512072175741,-0.2576451599597931,-0.0126698445528745,0.1684583574533462,jumping
1761226606384658700,-0.0751961838249117,0.1004430724799633,0.402531583854556,-0.2588748335838318,-0.0314742550253868,0.1657870858907699,jumping
1761226606394671900,-0.1517398367360234,0.0801303522914648,0.253674316817522,-0.2256567180156707,-0.0104930736124515,0.1481226086616516,jumping
1761226606404684800,-0.3224612911872566,0.0713075788885354,-0.071211425037682,-0.1647206395864486,-0.0076598543673753,0.1269426494836807,jumping
1761226606414698800,-0.3714759358555078,0.1370937640070915,-0.2753735229283571,-0.1093825474381446,-0.0058001689612865,0.1052434742450714,jumping
1761226606424712000,-0.3329169264890253,0.1327928519427776,-0.2279419096678495,-0.0448198094964027,-0.0322852656245231,0.0616912394762039,jumping
1761226606434724900,-0.3495938839910552,-0.0211333889216184,-0.2732727512568235,0.0154579123482108,-0.0960325598716735,0.0027845124714076,jumping
1761226606444737800,-0.4027853759525343,-0.1725099453032016,-0.1720873359769582,0.0577975623309612,-0.1457050740718841,-0.0410609915852546,jumping
1761226606454750700,-0.3613975729009136,-0.1066460187733173,-0.0314908245459198,0.1072553992271423,-0.1451897323131561,-0.0640177130699157,jumping
1761226606464765000,-0.3263611481700092,-0.0041045127093791,-0.1085346089988946,0.150449737906456,-0.118474505841732,-0.0745648965239524,jumping
1761226606474777900,-0.2798386491110548,0.0471568879723548,-0.3200783415734767,0.1771705597639084,-0.108607493340969,-0.0755068510770797,jumping
1761226606484790800,-0.1770736364895477,0.1187292552769184,-0.2387891746357083,0.1809602379798889,-0.1087142154574394,-0.0673692300915718,jumping
1761226606494804000,-0.0870675311435014,0.144328975957632,-0.0597615180015563,0.1572818011045456,-0.0909677073359489,-0.057847898453474,jumping
1761226606504817000,-0.0882702579967677,0.1111257945358753,0.0448740377321839,0.1037821024656295,-0.0530496947467327,-0.049277376383543,jumping
1761226606514830800,-0.1241919045969843,0.012210077753663,0.2355997309446334,0.0225969664752483,-0.022924281656742,-0.0466269999742507,jumping
1761226606524844000,-0.1522672216109931,-0.065355392485857,0.4631973572194576,-0.058417908847332,0.0048655639402568,-0.0412953272461891,jumping
1761226606534856700,-0.1137505170162767,-0.0904126768529415,0.5880874732136726,-0.1294497400522232,0.0338753759860992,-0.0259616486728191,jumping
1761226606544870000,-0.0341235842023044,-0.0331423911452293,0.581227232055366,-0.1741059869527816,0.0543755665421485,0.0024068544153124,jumping
1761226606554882800,0.0892548851199448,0.1033884782820939,0.4884811438187956,-0.1792661249637603,0.06487587839365,0.0289756134152412,jumping
1761226606564896800,0.1658303944740444,0.1685427952378988,0.3530798629432916,-0.1572539359331131,0.0332354195415973,0.0415438935160636,jumping
1761226606574910000,0.0905531082369387,0.1209831716835498,0.2570674663871526,-0.1240251511335372,-0.0267802458256483,0.0295138619840145,jumping
1761226606584923000,-0.0522728062139824,0.0433323612481355,0.2315066164121031,-0.0793101638555526,-0.0662207826972007,0.0038122925907373,jumping
1761226606594935800,-0.1426810626201331,-0.0342757790893316,0.0958531143411993,-0.0368018448352813,-0.0742049440741539,-0.0125815942883491,jumping
1761226606604948700,-0.1411450486918911,0.0217950677007436,-0.0712388975664973,-0.0127015300095081,-0.0547587350010871,-0.0083113806322216,jumping
1761226606614963000,-0.0498814540980383,0.1249339551359415,-0.0731222270950675,-0.0141481589525938,-0.0221589803695678,0.0047514247708022,jumping
1761226606624976000,0.0193037623416632,0.1477116041332483,0.0326329803183674,-0.0298319868743419,0.0173339769244194,0.0222756788134574,jumping
1761226606634988800,0.0555920502971857,0.1649549998790025,0.1346750124275684,-0.0263067614287138,0.090795412659645,0.0416333936154842,jumping
1761226606645002000,0.0449377506181597,0.1854471682876348,0.0821872848212719,-0.0079946592450141,0.165316104888916,0.0567001104354858,jumping
1761226606655014700,-0.0197416423022747,0.1410772806853056,-0.1738634057387709,0.0213192887604236,0.1871313899755478,0.0602873861789703,jumping
1761226606665028900,-0.0532165898701176,0.14043489112854,-0.1772404809564352,0.0397667065262794,0.1389280706644058,0.0424810908734798,jumping
1761226606675041800,-0.1340235627815127,0.0195879130452871,0.1462941385507583,0.0420785993337631,0.0405511632561683,0.0049126776866614,jumping
1761226606685054700,-0.1009292485617101,-0.1683323673576116,0.5158639485239982,0.0166450981050729,-0.0593293160200119,-0.0211009997874498,jumping
1761226606695068000,-0.067664948069863,-0.2341834344059228,0.7693073791950941,-0.0372799187898635,-0.1098857000470161,-0.0430680848658084,jumping
1761226606705080800,-0.0411895770657807,-0.137911510130763,0.8257859300032258,-0.0988699048757553,-0.0985564067959785,-0.0410412438213825,jumping
1761226606715094800,-0.0352779784018173,0.0526835424393415,0.7215566169828176,-0.1337775588035583,-0.0318311713635921,-0.0018999658059328,jumping
1761226606725108000,0.0788008572533726,0.3262888866513967,0.4652820545390248,-0.1497293412685394,0.0427619852125644,0.0466304533183574,jumping
1761226606735121000,0.1800229147491976,0.427327002415061,0.287559635284543,-0.1643088161945343,0.1062717214226722,0.0797934681177139,jumping
1761226606745133800,0.1405093811368569,0.3109223906934261,0.2000865190148353,-0.181251123547554,0.1344881206750869,0.0856901854276657,jumping
1761226606755146800,0.004273256872408,0.2101736132651567,0.3161746121332049,-0.202505812048912,0.1324175149202346,0.0732228606939315,jumping
1761226606765160700,-0.054451940351352,0.1371019473135471,0.4884185999765992,-0.2273270487785339,0.1059128940105438,0.0479089133441448,jumping
1761226606775174000,-0.0609853241754695,0.0403840328365564,0.6302873233005404,-0.2526651620864868,0.0696776583790779,0.0478029176592826,jumping
1761226606785186800,0.0216207705797627,0.0650660541504621,0.7082280565932393,-0.2664858996868133,0.0213805474340915,0.060703407973051,jumping
1761226606795199700,0.0843347817113623,0.1753828703910112,0.724748691022396,-0.2739611268043518,-0.0385552234947681,0.0649130642414093,jumping
1761226606805212700,0.084102836119011,0.2614414436876773,0.700251963147521,-0.2879756093025207,-0.0767389982938766,0.0723575204610824,jumping
1761226606815227000,0.0247113935388624,0.335501536154747,0.6914537396639585,-0.2900179922580719,-0.0406758040189743,0.0734534114599227,jumping
1761226606825239800,-0.1092262079922482,0.4280968177437782,0.5217901237025857,-0.2924140691757202,0.0043312818743288,0.068323791027069,jumping
1761226606835252700,-0.2882565680401399,0.4733113394767045,0.2607347567230463,-0.2776021063327789,0.0572632066905498,0.0416216142475605,jumping
1761226606845266000,-0.4621509534390643,0.4228144934266805,0.1767863074481487,-0.2425900250673294,0.0862904787063598,0.0164756812155246,jumping
1761226606855278800,-0.5602384392362088,0.4678986667782068,0.0411304672896862,-0.1825671643018722,0.1072540879249572,0.0012447969056665,jumping
1761226606865292800,-0.5554580365592614,0.6128863989055157,-0.0373334130942821,-0.1193624660372734,0.102510817348957,-0.0112488148733973,jumping
1761226606875306000,-0.5239389357669278,0.7020657345712185,-0.0490115759283304,-0.0737076327204704,0.0357488319277763,-0.0226687137037515,jumping
1761226606885318700,-0.4376893334101885,0.7750508912831544,0.2134346608877181,-0.0616054236888885,-0.0794307887554168,-0.0394788868725299,jumping
1761226606895331800,-0.3627129663484171,0.8017126882374286,0.7037573409199714,-0.0807540863752365,-0.1759000718593597,-0.0441109240055084,jumping
1761226606905345000,-0.2981264028105884,0.8068640796512365,0.9869634571701288,-0.1033002063632011,-0.2041515260934829,-0.0304109100252389,jumping
1761226606915358700,-0.2560922646794468,0.8638701614648103,0.8832856405526399,-0.1098784804344177,-0.1581462174654007,-0.0057963780127465,jumping
1761226606925372000,-0.2647035142235457,0.9551064296603202,0.5423837066590785,-0.1094214916229248,-0.1068821921944618,0.0055513838306069,jumping
1761226606935384800,-0.3633026028046384,1.0210884296119211,0.3787544024258851,-0.1126401871442794,-0.0324556268751621,-0.0075361882336437,jumping
1761226606945397800,-0.5233914944846183,1.0454016176134346,0.3466284948468208,-0.1148315891623497,0.0675244033336639,-0.0303515642881393,jumping
1761226606955411000,-0.6382919121883809,1.0343576610296965,0.2415022329866886,-0.1279966682195663,0.1598356962203979,-0.0579736046493053,jumping
1761226606965425000,-0.6568741553224623,1.033905241087079,0.2346697566181421,-0.1425646841526031,0.254500150680542,-0.074584275484085,jumping
1761226606975437800,-0.6273606221988797,1.0077642531365156,0.255250187832117,-0.1399502605199813,0.3315722942352295,-0.0808613449335098,jumping
1761226606985450800,-0.4764110590577125,1.0920856273770332,0.2274532493680715,-0.1011238098144531,0.3488654494285583,-0.0562863610684871,jumping
1761226606995464000,-0.238125742290914,1.1809732866197824,0.1272422320783138,-0.014754295349121,0.2807095646858215,-0.0187437813729047,jumping
1761226607005476900,0.0650704380646347,1.0772288345068692,0.0569108047455549,0.0844092071056366,0.1441235244274139,0.0406162589788436,jumping
1761226607015489800,0.4399514331232756,0.8892097699046134,0.0576443797171115,0.172638937830925,-0.0033663320355117,0.1120209321379661,jumping
1761226607025504000,0.7052676724176854,0.5800315925300121,0.0284212078422307,0.264132022857666,-0.0681360736489296,0.1823717504739761,jumping
1761226607035516700,0.8004376998655498,0.2356406474769115,-0.2419616671919822,0.3259655833244324,-0.061609461903572,0.2243402302265167,jumping
1761226607045529900,0.7021798624701797,-0.2117430545389652,-0.499219103193283,0.3410867154598236,-0.0385719761252403,0.2307340055704116,jumping
1761226607055543000,0.5745642305022105,-0.7359288412064313,-0.3862561563581228,0.3161155581474304,0.0101047493517398,0.2248886376619339,jumping
1761226607065555700,0.5894452444981784,-1.25768535490036,-0.1962389036759734,0.268751710653305,0.0465857684612274,0.2203559279441833,jumping
1761226607075570000,0.6452459691099822,-1.760623186355829,-0.1643029657110571,0.1914084553718567,0.0376194380223751,0.2109419107437133,jumping
1761226607085582800,0.7559905092433095,-2.1138643773406742,0.0560328528672456,0.0900995880365371,0.0148946577683091,0.1879489570856094,jumping
1761226607095595800,0.7566876977272331,-2.3312965834319592,0.189937757705152,-0.0212863199412822,-0.0051216604188084,0.1565161943435669,jumping
1761226607105609000,0.6837208073243498,-2.4848083982765674,0.2702273922115564,-0.1102203577756881,0.0135342627763748,0.1166102886199951,jumping
1761226607115622000,0.6808386029515415,-2.6008745718240736,0.0973269862860441,-0.1698850095272064,0.0390398912131786,0.0878955498337745,jumping
1761226607125635800,0.7588307011052966,-2.5584558182895183,-0.1695253765344619,-0.2175829410552978,0.0938320234417915,0.0670770704746246,jumping
1761226607135648800,0.8389407412610947,-2.4806769975602627,-0.3768687348097562,-0.2501209080219269,0.1978846490383148,0.0401429273188114,jumping
1761226607145662000,0.7661404395967721,-2.53734171859026,-0.5842027407348156,-0.2619431316852569,0.33051198720932,0.014803803525865,jumping
1761226607155675000,0.653936859761551,-2.469163669899106,-0.6390870080888271,-0.2538007795810699,0.4004982709884643,0.0096130361780524,jumping
1761226607165687800,0.6423341733165084,-2.19188519013226,-0.6272539469540119,-0.2703623473644256,0.373282790184021,0.0063745230436325,jumping
1761226607175701800,0.613523527765274,-1.906306499531865,-0.1599357104122638,-0.2827087640762329,0.2807975709438324,0.00992052257061,jumping
1761226607185715000,0.605930478820391,-1.7126918068796395,0.1721650773882865,-0.3117634057998657,0.1406708359718322,0.0335100181400775,jumping
1761226607195730400,0.7983914348602295,-1.4222060550153257,0.4700181431502103,-0.3677483797073364,0.0520890466868877,0.094787485897541,jumping
1761226607205743400,1.0542530325889587,-1.1709984205722808,0.6598720219641924,-0.4907251596450805,0.0969995334744453,0.1720830798149109,jumping
1761226607215756500,1.1632890883039682,-0.9366051428079604,0.9677847094476224,-0.6940151453018188,0.2689840793609619,0.2494777292013168,jumping
1761226607225770200,1.023965592483431,-0.6198246737360954,1.45032214243114,-0.9616650342941284,0.4635634422302246,0.2972841560840606,jumping
1761226607235783400,0.7357835144516081,-0.3800947111189365,1.9522972663342952,-1.2741485834121704,0.5268548130989075,0.2859558761119842,jumping
1761226607245796400,0.4469573663625866,-0.2845978628695011,2.7755180220246314,-1.5710036754608154,0.4065451323986053,0.2219497114419937,jumping
1761226607255809300,0.2762027402941137,-0.1911503483653068,3.594373568242788,-1.7397903203964231,0.1329047977924347,0.1586857736110687,jumping
1761226607265822500,0.3441077076649293,0.0783931532353162,3.506159862738848,-1.7844295501708984,-0.3508674204349518,0.1133449673652648,jumping
1761226607275836200,0.4456895018512383,0.6821347071766853,3.141981682676077,-1.711830735206604,-0.9378136992454528,0.1378399282693863,jumping
1761226607285849300,0.5972973462380469,1.6341116066396235,2.671978152573109,-1.540320634841919,-1.4599682092666626,0.2299079298973083,jumping
1761226607295862500,0.5271163967592641,2.608759772115945,1.590264281606674,-1.3227241039276123,-1.807088613510132,0.3336436450481415,jumping
1761226607305875200,0.0240039576555602,3.5895945172727104,0.3891699979782104,-1.0684746503829956,-1.9806551933288572,0.4047413766384125,jumping
1761226607315888400,-0.6890721052244305,4.432258809101581,-0.4308873252451419,-0.7767034769058228,-2.044276714324951,0.4360828101634979,jumping
1761226607325901300,-1.3744938712477683,4.746166937607526,-0.91068218152225,-0.4887792766094208,-2.0613341331481934,0.4515539109706878,jumping
1761226607335915300,-1.717381426000595,4.7829929857015605,-1.0227858811795711,-0.2363289296627044,-2.040269613265991,0.4661067426204681,jumping
1761226607345928400,-1.86142515527606,4.795445055517554,-0.7962468240469693,-0.0696692243218422,-1.9845412969589236,0.4475952386856079,jumping
1761226607355941400,-1.9693799185603853,4.745008999744058,-0.2188999405562877,-0.0116360150277614,-2.107898235321045,0.3526759147644043,jumping
1761226607365954300,-1.9586215009197592,4.527300314798951,1.1333663167923689,0.0111872302368283,-2.48118257522583,0.1756551265716552,jumping
1761226607375967200,-1.8244208280056715,3.9204882673710575,2.4760756412446496,0.0503125265240669,-2.864842414855957,-0.0613262504339218,jumping
1761226607385981400,-1.765658842435479,3.4880005211919545,2.6513936297059058,0.1714811027050018,-3.030170440673828,-0.2719005346298218,jumping
1761226607395994400,-1.6065961154654622,3.579668166542053,1.7336626987159252,0.3334836065769195,-2.9346671104431152,-0.3402308523654938,jumping
1761226607406007300,-1.2222010768041014,4.185619797748327,0.4692155945956707,0.5828503966331482,-2.3930766582489014,-0.2873266935348511,jumping
1761226607416020500,-0.9131152538880706,4.549126362159848,-1.6542483857393264,1.0280113220214844,-1.596016526222229,-0.1676080226898193,jumping
1761226607426033200,-1.2761597537457945,4.301284404757618,-4.390353850308061,1.6254172325134275,-0.7752997279167175,-0.1467737704515457,jumping
1761226607436047400,-2.648379834842682,3.24126798633635,-6.390985816222429,2.1068477630615234,-0.0626016110181808,-0.3425003886222839,jumping
1761226607446060500,-4.358402130252123,1.460993174049258,-6.459627975293993,2.3627114295959477,0.4288590848445892,-0.7774855494499207,jumping
1761226607456073200,-6.012810674989223,-0.890448956310749,-5.044405203294754,2.401660680770874,0.4549290239810943,-1.3761202096939087,jumping
1761226607466086400,-6.80139792419374,-2.9336557431042194,-2.80901638700068,2.264190196990967,0.1705612987279892,-1.9567253589630127,jumping
1761226607476099300,-6.208986158040165,-4.467577959764004,-0.7889899847865104,2.036369800567627,-0.0824816152453422,-2.3295602798461914,jumping
1761226607486113300,-4.207589052972197,-5.572891317504644,-0.5106313085675239,1.760977864265442,-0.0368857681751251,-2.385849952697754,jumping
1761226607496126500,-1.0456339650645852,-6.2576879373669625,-1.5739964528948067,1.4234468936920166,0.2781161069869995,-2.116607427597046,jumping
1761226607506139400,1.9053755022920664,-6.431545790147781,-2.6405554248273373,1.011184573173523,0.5852710008621216,-1.6941696405410769,jumping
1761226607516152300,2.9138486343503,-5.845484269803762,-2.2206337302327155,0.7124691605567932,1.0312939882278442,-1.2079294919967651,jumping
1761226607526165200,3.869801451706886,-6.376272815737128,-2.512457452702522,0.536099910736084,1.3146415948867798,-0.6885864734649658,jumping
1761226607536179200,4.971258718541264,-7.626073554867506,-3.3287259050369262,0.4215174317359924,1.3227254152297974,-0.1789490729570388,jumping
1761226607546192400,5.165087930727005,-7.374993930718302,-2.9513562349677085,0.3261363804340362,1.2208846807479858,0.2434661835432052,jumping
1761226607556205300,4.92312977066636,-6.586339461496472,-2.0058599296957254,0.2291975766420364,0.9426857829093932,0.5720797181129456,jumping
1761226607566218500,5.1207677274852985,-6.720531074321269,-0.9574451017409562,0.0861568972468376,0.3295459449291229,0.8054743409156799,jumping
1761226607576231200,5.2608495673924685,-7.328779292032122,0.7922846424177289,-0.069418579339981,-0.3997431397438049,0.9683338403701782,jumping
1761226607586244400,5.062987154167891,-7.823497576674819,2.1115940943211315,-0.1847444772720337,-1.0320817232131958,1.138310432434082,jumping
1761226607596258300,4.910215344035625,-8.12661309300959,2.0079221229225395,-0.2487029433250427,-1.6015816926956177,1.3105031251907349,jumping
1761226607606271200,4.02560722270757,-7.250461542120576,1.729115702936053,-0.2538550198078155,-1.9683910608291624,1.4559988975524902,jumping
1761226607616284400,2.5837127168819305,-5.31567713612318,1.2118424721360206,-0.2050435096025467,-1.922766089439392,1.5397419929504397,jumping
1761226607626297300,1.1097657340396194,-3.481694699046016,-0.0216162040024995,-0.1336186230182647,-1.6169519424438477,1.5780106782913208,jumping
1761226607636310300,-0.2209144952490925,-2.0095470937758684,-0.7984209532156586,-0.0512917935848236,-1.3768866062164309,1.6052111387252808,jumping
1761226607646324500,-1.0221392538391052,-0.840666396009922,-0.2418734043866395,0.064826563000679,-1.080899000167847,1.6401662826538086,jumping
1761226607656337200,-0.8623534732915461,0.2336041732132434,0.6286152984350919,0.1596833020448684,-0.8593428730964661,1.4675894975662231,jumping
1761226607666350300,-0.4465469589307904,1.098430612489581,1.208238894686103,0.0804749578237533,-0.7810382843017578,1.1267589330673218,jumping
1761226607676363300,-0.977856313867867,1.5489128650426864,2.6737492538988588,0.0400561541318893,-0.7850093245506287,0.8167709708213806,jumping
1761226607686376400,-1.6307152421995996,2.955025863391161,3.804192376720905,0.1050229221582412,-0.6041602492332458,0.4673506021499634,jumping
1761226607696390400,-2.061451906927675,3.515301200571656,3.3938609327703717,0.1973363310098648,-0.2803324162960052,0.0470348112285137,jumping
1761226607706403300,-1.9455941154338416,3.64388549490869,2.8173610214978453,0.2272810041904449,0.0182623192667961,-0.3422455489635467,jumping
1761226607716416300,-1.9407422914884984,3.828769768616557,3.04016498375535,0.2130991369485855,0.2471370548009872,-0.6482573747634888,jumping
1761226607726429400,-1.783700256691128,4.51143113001585,3.599935878545045,0.200338989496231,0.4723287224769592,-0.8965011835098267,jumping
1761226607736442400,-1.4121077087186276,5.580588886269926,3.749954006054997,0.219471663236618,0.6697256565093994,-1.093667984008789,jumping
1761226607746456300,-0.9156262137956916,6.475733891442418,3.722278648144007,0.2476540654897689,0.8164719939231873,-1.2015446424484253,jumping
1761226607756469200,-0.2830461033828556,7.143173718312382,3.697857908114791,0.2810168266296386,0.8898985385894775,-1.2299848794937134,jumping
1761226607766482400,0.4034168422564864,7.520116102880239,3.66949339889586,0.3243191540241241,0.851897656917572,-1.1637437343597412,jumping
1761226607776495400,1.0383481919705868,7.641124409005045,3.7822704677701,0.3345467746257782,0.7039987444877625,-1.0409613847732544,jumping
1761226607786508300,1.3271098965212702,7.492759309399127,4.10354561791271,0.2789393961429596,0.4347100257873535,-0.9268500208854676,jumping
1761226607796522500,1.1985231910314411,7.242603229835629,4.462797155228257,0.1541724056005478,0.0697999745607376,-0.8417556285858154,jumping
1761226607806535200,0.783924006633833,7.053197094789147,4.984882170224189,-0.005798852071166,-0.1943356990814209,-0.7896246314048767,jumping
1761226607816548400,0.1819703590225428,6.800902834153175,4.757792493471503,-0.145838513970375,-0.2573815286159515,-0.739021360874176,jumping
1761226607826561500,-0.4247095133930444,6.523775745555758,3.7120980303913353,-0.2772858738899231,-0.2126202583312988,-0.6677358746528625,jumping
1761226607836574200,-0.9407225149989128,6.139197751542926,2.641038239908218,-0.3848016560077667,-0.0573814027011394,-0.5746842622756958,jumping
1761226607846587400,-1.546422947923094,5.926881281030178,1.5073635878190397,-0.4333612024784088,0.2238152623176574,-0.4815197587013244,jumping
1761226607856601300,-2.104494199188053,5.780086207219958,0.2925938300594687,-0.4085120558738708,0.5254755020141602,-0.3987319469451904,jumping
1761226607866614300,-2.5419550576046106,5.474233374875784,-0.871893893444538,-0.3449268639087677,0.6178538203239441,-0.3460477590560913,jumping
1761226607876627500,-2.944987576718628,4.814581717664003,-1.5447908166766169,-0.1581055670976638,0.4918407797813415,-0.3857850432395935,jumping
1761226607886640400,-3.596946049079299,3.480127595859766,-2.4945243211269377,0.1290544122457504,0.3387190699577331,-0.6327656507492065,jumping
1761226607896653300,-4.669266945539414,1.6103852786153554,-4.533329658091068,0.5333651304244995,0.3605284988880157,-1.0109022855758667,jumping
1761226607906667300,-6.182086460676789,-0.0760556501984596,-6.58035687995553,1.0050740242004397,0.798231303691864,-1.434911608695984,jumping
1761226607916680400,-6.604413462847471,-1.1519856770664454,-8.795900593572854,1.374894142150879,1.5006426572799685,-1.6930707693099976,jumping
1761226607926693400,-4.866807871724665,-2.014133252522349,-10.107190112888812,1.63609516620636,1.985713481903076,-1.6140310764312744,jumping
1761226607936706300,-0.5031117267176508,-2.9116835652709008,-9.676824181169271,1.46945321559906,1.4280904531478882,-1.605563998222351,jumping
1761226607946719500,2.650764099630713,-4.2639767106264825,-5.634203572079539,1.215746283531189,0.5563850998878479,-1.6273971796035769,jumping
1761226607956733400,4.9184191087573765,-6.551630551686882,-2.201407051715255,1.0734847784042358,-0.1204506456851959,-1.420871376991272,jumping
1761226607966746400,7.289711017969251,-8.800970151922106,-2.066775293907523,1.0239931344985962,-0.5025285482406616,-1.066765069961548,jumping
1761226607976759600,8.354478430309891,-8.906887856420875,-2.01419784219116,0.7183257341384888,-0.8274440765380859,-0.7511676549911499,jumping
1761226607986772200,8.223342113402486,-8.672451324036716,-0.3291974675744771,0.1214470937848091,-1.2103105783462524,-0.3411968946456909,jumping
1761226607996785400,7.993043411475419,-8.433913786074518,2.245975092238188,-0.5988284945487976,-1.311302661895752,0.1326124668121338,jumping
1761226608006799400,7.905428840908407,-8.105458661299943,3.371492449095845,-1.2798727750778198,-1.112417459487915,0.6470810770988464,jumping
1761226608016812300,7.27701111087203,-7.136163547289371,3.249569366213679,-1.8999762535095213,-0.7445998191833496,1.0849764347076416,jumping
1761226608026825500,5.994341536840796,-5.386186258110404,3.103219113561511,-2.410000324249268,-0.3777338564395904,1.3283231258392334,jumping
1761226608036838400,3.7576898610040543,-3.733740537878871,3.2054651438102124,-2.6793758869171143,-0.1032248064875602,1.3371858596801758,jumping
1761226608046851300,1.144250114378333,-2.123609526285529,2.9795705220609903,-2.7468743324279785,0.1581481248140335,1.2316241264343262,jumping
1761226608056864300,-0.6533548951551318,-0.565844661745429,2.272681312856078,-2.635152578353882,0.4533997476100921,1.106006741523743,jumping
1761226608066878200,-1.4789599156334996,0.9772603938013316,1.5561276187270878,-2.3423402309417725,0.7004602551460266,0.9456391334533693,jumping
1761226608076891400,-1.9404165666654705,2.149334334650636,1.0162152706176042,-1.8643903732299805,0.8277633190155029,0.7973745465278625,jumping
1761226608086904300,-2.113540552213788,3.112628162419796,0.5721878932923078,-1.1748595237731934,0.8079900145530701,0.7060080170631409,jumping
1761226608096917500,-1.707709634552896,3.9688527775675055,-0.109169984292984,-0.3208304047584533,0.5421407222747803,0.7178377509117126,jumping
1761226608106930200,-0.7828118076082319,4.43748385027349,-0.4938251351952552,0.5468796491622925,0.1273843348026275,0.7975677251815796,jumping
1761226608116944400,0.0304664316679351,4.396710525858402,-0.1953483845770359,1.329397678375244,-0.3312735259532928,0.9167367219924928,jumping
1761226608126957300,0.3469961591154337,4.464611511173844,0.7235416533201933,1.8784226179122925,-0.7124595046043396,0.8838179111480713,jumping
1761226608136970200,0.2295999790731817,4.599873383578658,1.9205138885825872,2.0820624828338623,-1.0614768266677856,0.752032995223999,jumping
1761226608146983400,-0.4389180349549278,4.7759395600587125,3.899824834048748,1.9674988985061648,-1.060375690460205,0.6370651721954346,jumping
1761226608156996400,-0.8202544532306492,5.223085946187377,5.173322090587019,1.6680829524993896,-0.6928673386573792,0.5951358079910278,jumping
1761226608167010300,-0.8359066342622041,5.545853672975301,4.946180975908041,1.2838746309280396,-0.1823830306529998,0.5965026617050171,jumping
1761226608177023500,-0.8305825166299938,5.794557800164818,4.5849002708524464,0.9020217657089232,0.2443248778581619,0.5827476978302002,jumping
1761226608187036200,-0.942527956985682,5.544531484460831,4.3858147455737,0.6040974259376526,0.4824269711971283,0.4975222647190094,jumping
1761226608197047000,-1.4535285372570157,4.691319495132565,4.107386218988895,0.4846909046173095,0.5684643387794495,0.2802131175994873,jumping
1761226608207060000,-2.6284716038018465,3.638416123586893,3.1666435379847884,0.4788163304328918,0.5815362930297852,-0.0216190945357084,jumping
1761226608217073000,-3.8866473725676536,2.965907907411456,2.0363222879767418,0.5608773827552795,0.6497066020965576,-0.3002677857875824,jumping
1761226608227087000,-4.4025329484015705,2.9392729984641077,0.8970560994908213,0.7451270818710327,0.7309603095054626,-0.4987152218818664,jumping
1761226608237099800,-4.242228112415969,2.9690239936053757,-0.5370107814490794,1.0229804515838623,0.7757349610328674,-0.5963650941848755,jumping
1761226608247113000,-3.990139311224222,3.0146394973546267,-1.8229232829242945,1.3733826875686646,0.70646733045578,-0.637086808681488,jumping
1761226608257126000,-3.674150869312882,3.0207477511018515,-2.5822508276358245,1.759630799293518,0.4373064041137695,-0.698058545589447,jumping
1761226608267139000,-3.685907065819204,2.674578690460324,-2.583276079030335,2.099853754043579,0.0963386073708534,-0.8098368644714355,jumping
1761226608277153000,-4.044373005715013,2.2755898937791583,-2.408910276727378,2.364142179489136,-0.1221282109618187,-1.009530544281006,jumping
1761226608287166000,-4.448226778084039,1.7568740629553794,-2.516222942715883,2.5182125568389893,-0.1802350133657455,-1.2753015756607056,jumping
1761226608297179000,-5.020992763525247,0.5662111569702625,-2.7376865962803363,2.506951808929444,0.0921685546636581,-1.5137476921081543,jumping
1761226608307192000,-4.533376419842243,-0.1991851862609386,-3.031261254070699,2.3347036838531494,0.8988996744155884,-1.567404866218567,jumping
1761226608317205000,-2.441048167005181,-1.0449760856777428,-3.337864027999341,1.9292333126068115,1.9163851737976076,-1.4347599744796753,jumping
1761226608327219000,1.0690915591500698,-3.3121956259965897,-2.7022917500332,1.2042111158370972,2.176563501358032,-1.1446691751480105,jumping
1761226608337232000,5.070491830709576,-5.954370176458358,0.991874756217748,0.4330822229385376,1.3820091485977173,-0.7983384132385254,jumping
1761226608347245000,8.528959967947007,-9.554342295360565,4.515781726440787,-0.2969659566879272,-0.1318607181310653,-0.5358702540397644,jumping
1761226608357258000,9.68991805602014,-12.376166141486166,5.3567830534935,-0.8642253875732422,-1.1788771152496338,-0.4107440114021301,jumping
1761226608367271000,7.847136810937523,-12.744323746573924,3.842680805069208,-1.2508926391601562,-1.349153995513916,-0.2949340045452118,jumping
1761226608377284000,5.847690255415439,-12.299724706840514,0.0661710927829146,-1.5603916645050049,-1.2426294088363647,-0.0024653829168528,jumping
1761226608387297800,5.440075669208169,-11.821235087943077,-3.0732252495750783,-1.786273717880249,-0.7385618686676025,0.3325287997722626,jumping
1761226608397311000,4.44647321241498,-9.87388287679553,-4.9351978096008295,-1.8529748916625977,0.1242797002196312,0.5804099440574646,jumping
1761226608407324200,3.1362706115528938,-8.127303413361311,-6.554580633664131,-1.791758418083191,0.7495777606964111,0.7781934142112732,jumping
1761226608417336800,2.7321137645840645,-7.070298451715708,-6.256476808011532,-1.6634033918380735,0.8416086435317993,0.9269917011260986,jumping
1761226608427350000,2.8543741165965795,-6.146526486995816,-3.9796380832150575,-1.5303786993026731,0.4052103757858276,1.0179967880249023,jumping
1761226608437364000,2.923575078594685,-4.852399699404836,-1.067100531463325,-1.3947216272354126,-0.3472271561622619,1.0777325630187988,jumping
1761226608447377000,2.800038423036039,-3.2652327992916104,1.3882380267009138,-1.2755216360092163,-1.0282634496688845,1.163021206855774,jumping
1761226608457390000,2.4777815683797,-1.383714704057574,2.614891698999702,-1.1901215314865112,-1.4211831092834473,1.311255693435669,jumping
1761226608467403000,1.9033036644540728,0.7377800220310687,2.8367414292722937,-1.1449369192123413,-1.4658883810043335,1.4945083856582642,jumping
1761226608477416000,1.166688886810094,2.629326759326458,2.759967986193299,-1.1508309841156006,-1.2459996938705444,1.642588496208191,jumping
1761226608487430000,0.189976226552017,4.048072444754839,2.6880025279179214,-1.1353524923324585,-0.8339139223098755,1.6677807569503784,jumping
1761226608497443000,-0.9918749023482204,4.884150343930721,2.495187461210787,-1.0634692907333374,-0.4134199619293213,1.551253080368042,jumping
1761226608507456000,-2.1653385439902544,5.355433392450213,2.441502925035357,-0.9702628254890442,-0.1273067593574524,1.311046123504639,jumping
1761226608517469000,-3.069058485284448,5.540318250679969,3.048863838517666,-0.8405120372772217,0.0053442316129803,0.96217280626297,jumping
1761226608527482000,-3.6335774513840673,5.337974892649054,3.7266537944883114,-0.6766490340232849,-0.0029615690000355,0.5665916204452515,jumping
1761226608537494800,-3.8264854570716618,5.176462726700306,4.187260550692677,-0.5150947570800781,-0.0805594250559806,0.1915450692176818,jumping
1761226608547509000,-3.5468487237408755,5.308635985440016,4.456033652442693,-0.3751249015331268,-0.1643716841936111,-0.1395168900489807,jumping
1761226608557522200,-3.017814912520349,5.531133658227324,4.635779978740215,-0.2786457538604736,-0.1905241906642913,-0.3943968415260315,jumping
1761226608567534800,-2.4580007631108165,5.79285625694394,4.6945288125678895,-0.2431710362434387,-0.0993674024939537,-0.5475072860717773,jumping
1761226608577548000,-1.780788022506237,6.40157852190733,4.682178449560702,-0.2708772420883178,0.1077575534582138,-0.6627718210220337,jumping
1761226608587561000,-1.040315035064146,6.883903188923001,4.648716909463704,-0.3131726682186126,0.3157070279121399,-0.6679208278656006,jumping
1761226608597575000,-0.3852437644451856,7.377966809049248,4.754581714731454,-0.3272629082202911,0.4770320057868957,-0.6666805744171143,jumping
1761226608607588000,-0.0589252863731235,7.706908840557932,4.796659107482433,-0.3163999319076538,0.4409516155719757,-0.7188605666160583,jumping
1761226608617601000,-0.1084676812425255,7.4946969994634385,5.008758720374107,-0.2686193585395813,0.1927892416715622,-0.7672100067138672,jumping
1761226608627614000,-0.0442374933943152,7.210181554180383,5.386124883311987,-0.1865867376327514,-0.1535400599241256,-0.7894752025604248,jumping
1761226608637627000,0.138012011363171,6.797567552250623,5.42412698944807,-0.1172870248556137,-0.4870152473449707,-0.7782526612281799,jumping
1761226608647640800,0.0755360467711463,6.344581207922101,5.053473475891352,-0.10037512332201,-0.6497782468795776,-0.6916428208351135,jumping
1761226608657654000,-0.126740127775073,6.304168533512949,4.181802285286784,-0.1134230121970176,-0.672462522983551,-0.5782006978988647,jumping
1761226608667667000,-0.4899516547627747,6.194302968171239,2.917040708389878,-0.1177876964211463,-0.5981614589691162,-0.4687840938568115,jumping
1761226608677680000,-1.1327834023378789,5.516826900455356,1.4413634676888585,-0.0781904906034469,-0.4499089121818542,-0.3973780870437622,jumping
1761226608687692800,-2.0501396547965705,4.338727123445272,-0.2185568262070417,0.0184194240719079,-0.2989296019077301,-0.4319174587726593,jumping
1761226608697706000,-3.49790319878608,3.102411304309964,-1.8484820870727297,0.1554814130067825,-0.0794137641787529,-0.6141520142555237,jumping
1761226608707720000,-5.4006970140218735,1.927429367059469,-3.4848245215043425,0.4315569996833801,0.3065431118011474,-0.8473225235939026,jumping
1761226608717732900,-6.668045100280642,0.7734475477397441,-5.415358576580882,0.7506311535835266,0.7964597940444946,-1.1284586191177368,jumping
1761226608727746000,-6.661811758849025,-0.8986620733827352,-7.2521209997653955,1.0308510065078735,1.4419411420822144,-1.3663684129714966,jumping
1761226608737759000,-4.89229361063689,-2.875639022943377,-8.116006943321228,1.214757204055786,2.232760429382324,-1.4533193111419678,jumping
1761226608747772000,-1.5127727533861994,-5.104497560685873,-8.007313928890229,1.1857810020446775,2.518920660018921,-1.3488034009933472,jumping
1761226608757786000,2.7836767785608765,-7.52289316637814,-6.153603293514252,0.9281108379364014,1.7646796703338623,-1.1376687288284302,jumping
1761226608767798800,6.416960215434432,-10.520998877561093,-2.729124227379262,0.5373240113258362,0.4075188934803009,-0.8004635572433472,jumping
1761226608777812000,8.599246387094258,-13.323776662433149,-0.7464958279281855,0.0102879032492637,-0.890804648399353,-0.3647935688495636,jumping
1761226608787825000,9.001368805626035,-13.670267210114002,-0.4945540339916944,-0.5371033549308777,-1.4655121564865112,0.0063389623537659,jumping
1761226608797838000,7.358620888066292,-12.590987288296224,-2.257353979864716,-1.0131449699401855,-1.2450957298278809,0.3027772903442383,jumping
1761226608807851000,4.798709902532399,-11.608756704866886,-5.455242258679866,-1.314327597618103,-0.3283153474330902,0.5364583730697632,jumping
1761226608817865000,2.9872143148124217,-10.603557918304205,-8.43516057126522,-1.3625328540802002,0.8141226768493652,0.7124192714691162,jumping
1761226608827878000,2.288290093137324,-9.711640058484672,-10.426424404853584,-1.1502114534378052,1.5184566974639893,0.8686617016792297,jumping
1761226608837890800,2.7825819690614937,-9.013977527308464,-10.11885366267562,-0.7856205105781555,1.5559931993484497,1.0135116577148438,jumping
1761226608847904000,3.868380771254003,-8.43378168412745,-7.81795689368248,-0.3425165712833404,1.037997841835022,1.10788893699646,jumping
1761226608857917200,4.307586719772219,-7.507280002182721,-4.835857729926705,0.0935430154204368,0.1876930594444275,1.1162161827087402,jumping
1761226608867931000,3.9761750832796094,-6.214433902052044,-1.881687022060156,0.4329141676425934,-0.6896877884864807,1.086859107017517,jumping
1761226608877944000,3.346008463749289,-4.631285589930415,0.4890741412758826,0.6210798621177673,-1.4043071269989014,1.078280687332153,jumping
1761226608887956700,2.71870337112993,-2.6357565001130103,2.1893132938176394,0.6720551252365112,-1.765347599983215,1.1221883296966553,jumping
1761226608897970000,2.1026247520543637,-0.6207715991973877,3.251988117793202,0.5939267873764038,-1.7674068212509155,1.2146809101104736,jumping
1761226608907983000,1.4094029798045753,1.2344593776136636,3.8035052712395783,0.4343166649341583,-1.5480823516845703,1.315740942955017,jumping
1761226608917996800,0.7224896600492298,2.778086411207914,4.348718356105685,0.2304194569587707,-1.2058959007263184,1.4168721437454224,jumping
1761226608928010000,0.1094346996437758,4.039425027918815,4.83866577308476,0.0136144729331135,-0.8617120385169983,1.4811136722564695,jumping
1761226608938023200,-0.4578175638772547,5.0159062540411945,5.245920293807983,-0.1844533234834671,-0.5816407203674316,1.4490656852722168,jumping
1761226608948035800,-1.263761752204597,5.690830883708596,5.719755949419737,-0.3517909348011017,-0.4114769697189331,1.3166933059692385,jumping
1761226608958049000,-1.9257745855897663,5.965031855726242,6.00276391274929,-0.5172619223594666,-0.3830226957798004,1.112890124320984,jumping
1761226608968062000,-2.3242167081736027,6.081962537148595,6.302472835510969,-0.656486451625824,-0.4104065895080566,0.8664438724517822,jumping
1761226608978076000,-2.680338569161296,6.144871121004224,6.245460908478498,-0.7627431154251099,-0.4091724753379822,0.5826238393783569,jumping
1761226608988089000,-2.9791134259432552,6.329526846653223,5.735545054703951,-0.8249148726463318,-0.3107102513313293,0.2940062880516052,jumping
1761226608998102000,-3.143835201588273,6.610208412861824,5.101586641675233,-0.8676522374153137,-0.1075907126069068,0.0411953516304492,jumping
1761226609008115000,-2.9920632161483165,6.979541491469741,4.5941935843765735,-0.8982442021369934,0.1924132406711578,-0.1645019948482513,jumping
1761226609018128000,-2.586255679363012,7.358953481021523,4.318054922294617,-0.9030879735946656,0.4888243973255157,-0.3259937167167663,jumping
1761226609028141000,-2.049020733769238,7.659557891318202,4.197348813986778,-0.8682720065116882,0.7440242767333984,-0.4228639602661133,jumping
1761226609038155000,-1.4296867661595345,7.867198771235346,4.245262073284388,-0.7739840745925903,0.912320613861084,-0.4713785052299499,jumping
1761226609048168000,-0.6595207973737269,8.03526868826449,4.212700112375617,-0.6356571912765503,0.8902174234390259,-0.5005115866661072,jumping
1761226609058181000,0.0142140379872173,7.86152189464271,4.271625764074922,-0.5141659379005432,0.6321662068367004,-0.5425362586975098,jumping
1761226609068193800,0.3661577365074306,7.367614926382899,4.70311573138833,-0.4089705944061279,0.2715330123901367,-0.6412292122840881,jumping
1761226609078207000,0.3077992902368306,6.690808136230706,5.160892232602834,-0.2948754727840423,-0.0964665859937667,-0.7394458055496216,jumping
1761226609088221200,0.0173925218928605,6.391397904154658,5.113381124365329,-0.2079754471778869,-0.4426175057888031,-0.8498750329017639,jumping
1761226609098233900,-0.297485109232366,6.38016631604433,4.964066176688671,-0.1854368597269058,-0.7716425657272339,-0.9366728067398072,jumping
1761226609108247000,-0.5833516768634319,6.121597797444462,4.671390805825591,-0.2222373038530349,-0.9621206521987916,-0.9237396717071532,jumping
1761226609118260000,-0.7077342817269265,5.885145833584666,3.793150173702836,-0.2389307916164398,-1.0621894598007202,-0.8148723244667053,jumping
1761226609128273000,-0.7456414761211723,5.584884537637233,2.128602512267232,-0.2461085468530655,-1.1201372146606443,-0.6867465972900391,jumping
1761226609138287000,-1.2412275565743445,4.754018820151686,0.3490326333791017,-0.2163999229669571,-1.0198860168457031,-0.6167792677879333,jumping
1761226609148300000,-2.3815906003862617,3.2131840476244684,-1.7595833219140766,-0.1224159747362136,-0.5717939734458923,-0.6553143858909607,jumping
1761226609158313000,-4.038591791965067,1.5052227763980626,-4.099617338553071,0.0208181478083133,0.2040727287530899,-0.8736978769302368,jumping
1761226609168326000,-5.913681023195386,-0.0674345368474721,-6.059123513352871,0.1283641308546066,1.173883080482483,-1.3105014562606812,jumping
1761226609178339000,-7.038609181988239,-1.851339230069518,-6.800065798807144,0.144325241446495,1.9995543956756592,-1.8173044919967647,jumping
1761226609188351700,-6.008479367786646,-4.376388453319668,-6.228811386972666,0.1181198507547378,2.279632568359375,-2.1248066425323486,jumping
1761226609198365400,-2.2010683212801814,-7.348285956534743,-5.248581037449837,0.026921497657895,1.4862923622131348,-2.0952157974243164,jumping
1761226609208378600,3.2593399418607354,-10.547980407989025,-3.5813621109783647,-0.1855275630950927,-0.102167397737503,-1.6572566032409668,jumping
1761226609218391300,8.282302836415171,-13.233928633725643,-2.313516596591473,-0.5426356196403503,-1.389989972114563,-1.034016728401184,jumping
1761226609228404500,9.53575742187798,-12.88521690286398,-2.396487140744924,-0.945137619972229,-1.8096303939819336,-0.511093258857727,jumping
1761226609238417700,7.212746436232328,-11.128331149470805,-4.526581937396526,-1.306176781654358,-1.6690139770507812,-0.122958056628704,jumping
1761226609248431400,4.064097112360597,-10.100971969026329,-6.849321120363474,-1.4887303113937378,-0.996289312839508,0.1839292049407959,jumping
1761226609258444500,1.5732317521326242,-9.11689546546936,-9.500857373410463,-1.4139622449874878,0.1476859748363495,0.4210735857486725,jumping
1761226609268457500,0.0811889579663053,-8.111456440410018,-12.123290281569956,-1.122321367263794,1.3384203910827637,0.55537348985672,jumping
1761226609278470400,-0.2185695395581424,-7.58432583246231,-13.455878609502316,-0.607306182384491,2.014486074447632,0.654903769493103,jumping
1761226609288483600,0.5429288829190656,-7.459114813950658,-12.02035363870859,0.0481928810477256,2.0297064781188965,0.7382804155349731,jumping
1761226609298496500,2.226425903768092,-7.821800125107169,-9.60369640111625,0.7732914686203003,1.387073040008545,0.7685331702232361,jumping
1761226609308510500,3.38375513381958,-7.67765118189156,-6.310059929639101,1.44534170627594,0.259762704372406,0.7468641996383667,jumping
1761226609318523400,3.8050247358918186,-6.86320351524353,-2.673548178368806,1.960403084754944,-0.9745685458183287,0.7368568181991577,jumping
1761226609328536600,4.073999497693777,-5.609967540967464,0.4624205276280641,2.2645797729492188,-1.9083356857299805,0.7979445457458496,jumping
1761226609338549500,4.21134197576493,-3.934853477331996,2.578994163927436,2.340075969696045,-2.380394697189331,0.9407576322555542,jumping
1761226609348562400,4.036549180221558,-2.1437159102469683,3.7582039480060336,2.154463052749634,-2.4958090782165527,1.1069910526275637,jumping
1761226609358576600,3.4831174253255126,-0.4947317286461591,5.046009131360054,1.703847885131836,-2.347012042999268,1.217803955078125,jumping
1761226609368589300,2.499451256135106,0.9921890828639268,6.6257257154673335,1.0960129499435425,-1.9490524530410769,1.2724897861480713,jumping
1761226609378602500,1.5398416698366402,2.1256413243740795,7.419204243844747,0.4107518196105957,-1.4577685594558716,1.2784075736999512,jumping
1761226609388615700,0.8014915928326547,2.81075066344738,7.622476407158374,-0.295453816652298,-1.0399914979934692,1.2289127111434937,jumping
1761226609398628400,0.0098440792746841,4.471638633331656,7.865303751268982,-0.881883978843689,-0.5156018137931824,1.0381637811660769,jumping
1761226609408641500,-1.3678272529654203,5.331863716292381,7.106216152793168,-1.2798852920532229,-0.0392858460545539,0.7440584897994995,jumping
1761226609418655500,-2.4455935553498565,5.3534530322879545,5.737042015263438,-1.4740712642669678,0.2962037324905395,0.4536064267158508,jumping
1761226609428668400,-2.589122174710035,5.666776054382324,4.521086262589693,-1.4657275676727295,0.5648776888847351,0.2176311016082763,jumping
1761226609438681600,-2.229150652556866,5.9955164258390665,3.323658684775233,-1.3223896026611328,0.7594344019889832,0.0605280362069606,jumping
1761226609448694500,-1.6364358118034898,6.3906882945805785,2.4464076482117174,-1.0811816453933716,0.8566198945045471,-0.0403971746563911,jumping
1761226609458707500,-1.0180978694938123,6.815743844932317,2.0496593239337204,-0.7522599697113037,0.8716982007026672,-0.1106628105044364,jumping
1761226609468721700,-0.6069361121989786,7.18700467673242,1.7771534653961658,-0.3669390976428985,0.7467310428619385,-0.1354834288358688,jumping
1761226609478734600,-0.2685031257022172,7.652732429212331,1.759770953440666,0.0256382804363966,0.5220624804496765,-0.1660996526479721,jumping
1761226609488747500,-0.1874525167606771,7.698450224292277,1.83333887847662,0.4013168513774872,0.2544589042663574,-0.2031115591526031,jumping
1761226609498760400,-0.2138072935923934,7.462666953474283,1.8304840735673904,0.7297484874725342,-0.0282942503690719,-0.217334434390068,jumping
1761226609508773600,-0.2040185247015208,7.459359728622436,1.9010557393968104,0.943843960762024,-0.3145453631877899,-0.255924642086029,jumping
1761226609518786300,-0.2903715509001165,7.26651134416759,2.3887995088517666,1.0278112888336182,-0.5028867125511169,-0.3093676269054413,jumping
1761226609528800500,-0.4105236055217683,6.941846843847632,2.912827474609017,0.9935240745544434,-0.5821508169174194,-0.3528051674365997,jumping
1761226609538813700,-0.5494920773595571,6.717867408069968,3.1800100922971963,0.855254054069519,-0.5876970887184143,-0.383523941040039,jumping
1761226609548826400,-0.6464017880816012,6.562420241248607,3.378855379079282,0.6636971831321716,-0.5216413140296936,-0.3927158117294311,jumping
1761226609558839600,-0.7746243364341556,6.334591144305468,3.308000512394309,0.4682434797286987,-0.4003377854824066,-0.3941957056522369,jumping
1761226609568852500,-0.9969325510639696,6.000783552587032,2.890549007305503,0.3061647117137909,-0.2431704401969909,-0.4222378730773926,jumping
1761226609578866400,-1.4773976347528397,5.532084090819954,2.1907488795787096,0.2120895981788635,-0.0033152382820844,-0.4799522757530212,jumping
1761226609588879600,-2.164419967840612,5.084284793740511,1.2056044545292854,0.2254791557788849,0.3563823997974396,-0.5398000478744507,jumping
1761226609598892500,-2.6113936277508736,4.956927995371818,-0.020770400828123,0.3035427927970886,0.6714034676551819,-0.6009936332702637,jumping
1761226609608905500,-2.6760338577046987,4.79830570564568,-0.8178302948236464,0.4362679719924927,0.8017637729644775,-0.6745448112487793,jumping
1761226609618918400,-2.6071596434429285,4.162140137961506,-1.0188312983348966,0.6468532085418701,0.8259043097496033,-0.7774733304977417,jumping
1761226609628931600,-2.55712778455615,3.1287942843228578,-1.3972183287531137,0.8853105306625366,0.9598066806793212,-0.9091265201568604,jumping
1761226609638945500,-2.354849746846408,1.698656851786375,-2.2263591221421954,1.0782204866409302,1.4023678302764893,-1.0172992944717407,jumping
1761226609648958500,-1.4437662910468876,-0.3766600604951381,-2.9628689781069752,1.1737651824951172,2.0340359210968018,-1.0239325761795044,jumping
1761226609658971600,0.2728555304917506,-3.238200999981165,-3.207913413745165,0.9898862242698668,2.247115135192871,-0.8179010152816772,jumping
1761226609668984300,3.068479224091768,-6.301255276414752,-2.0501398009270426,0.4174164533615112,1.495012640953064,-0.4042589664459228,jumping
1761226609678997500,6.1856280788064,-9.72352572658956,0.4514259631440043,-0.2832825481891632,0.2097772508859634,0.0397504158318042,jumping
1761226609689010700,8.364602933961153,-14.104562297976017,0.8163029391258955,-0.8357621431350708,-0.9031200408935548,0.4596650898456573,jumping
1761226609699024400,7.705877743944526,-15.832051276493072,-1.8344199517115949,-1.18600594997406,-1.15648353099823,0.734599232673645,jumping
1761226609709037600,4.099023172052204,-14.281877013212442,-5.841134257900714,-1.2896496057510376,-0.5480140447616577,0.8454056978225708,jumping
1761226609719050500,0.5870645599067211,-12.884445333969593,-10.22364791610241,-1.2360844612121582,0.6159772276878357,0.8007269501686096,jumping
1761226609729063400,-1.663573847967386,-11.87449321539998,-13.480508023846149,-0.7952868342399597,1.778038501739502,0.8143846988677979,jumping
1761226609739076600,-1.8639628570601343,-10.845242522120476,-14.80236336084008,-0.1528274714946746,2.5252959728240967,0.9459437727928162,jumping
1761226609749090600,-0.0616695801125839,-10.863276191461086,-14.449350717914104,0.5836734771728516,2.809069871902466,1.152535319328308,jumping
1761226609759103500,2.069978035471588,-10.669726965260503,-12.355710213434696,1.2401660680770874,2.452505350112915,1.1951826810836792,jumping
1761226609769116400,2.5065625494450328,-10.15941363660097,-8.505501350948213,1.7827523946762085,1.6310323476791382,1.0274808406829834,jumping
1761226609779129600,1.7114762936100365,-9.518418164542316,-3.8572038359403606,2.2278401851654053,0.5333184599876404,0.8153350353240967,jumping
1761226609789142500,1.3701101032055911,-8.35520616006255,-0.0107005499735474,2.522996187210083,-0.4975611865520477,0.6630215644836426,jumping
1761226609799155500,1.9073073471374808,-6.954293652966618,2.676882583488524,2.5729317665100098,-1.3111903667449951,0.5837989449501038,jumping
1761226609809169400,2.1452625551670788,-5.31860500626862,4.722135489156842,2.3109891414642334,-1.706203818321228,0.5631689429283142,jumping
1761226609819182300,1.8811100989550351,-3.3615263508766886,6.677427261132001,1.7905516624450684,-1.4855172634124756,0.5740306377410889,jumping
1761226609829195500,1.7600066618926822,-1.500371244713664,7.478402282744645,1.0403027534484863,-1.115193486213684,0.6123275756835938,jumping
1761226609839208700,1.3608534684300422,0.1924380500882863,8.029179723739624,0.1143253892660141,-0.8895605206489563,0.6927427649497986,jumping
1761226609849221400,0.840305965199694,3.4419951413422822,9.640726447349786,-0.8847973942756653,-0.6568983197212219,0.7378767132759094,jumping
1761226609859235600,0.2250345708537846,5.627037333711981,10.342751265388726,-1.8375842571258545,-0.4975917041301727,0.6878215074539185,jumping
1761226609869248500,-0.6775095315940678,6.166682555317879,10.12528574154973,-2.60045862197876,-0.4390115141868591,0.5715572237968445,jumping
1761226609879261400,-1.3998086375072598,6.481943267476559,9.12474500992596,-3.105248212814331,-0.3779529333114624,0.4585699737071991,jumping
1761226609889274600,-1.7497417268574236,6.926085211092233,7.347944011229276,-3.375184297561645,-0.1774603128433227,0.4102303981781006,jumping
1761226609899287600,-1.656050758986175,7.511283977127075,5.373052635771036,-3.4409549236297607,0.0760361403226852,0.3737794458866119,jumping
1761226609909300500,-1.675589718323201,8.001102214768528,3.743499130827188,-3.3328957557678223,0.2800544798374176,0.3025451898574829,jumping
1761226609919314700,-1.772908375172317,8.32656166485846,2.842830393797159,-3.0813148021698,0.3686519861221313,0.208922803401947,jumping
1761226609929327400,-1.774085017736256,8.399207214352488,2.445586394956708,-2.7156543731689453,0.302031010389328,0.0710135102272033,jumping
1761226609939340500,-1.8509853020653129,7.996842219236493,2.3268045327097178,-2.2297112941741943,0.179589495062828,-0.0995771363377571,jumping
1761226609949353500,-1.9150724281810223,7.3510788021236655,2.1031997754633425,-1.650106430053711,0.0404018983244895,-0.2056933045387268,jumping
1761226609959366700,-1.2495879731625317,7.0393392498284575,1.5630454352915286,-1.0587738752365112,-0.0968451723456382,-0.2319102585315704,jumping
1761226609969379300,-0.6723341017175466,7.030651500982046,1.4980284809798,-0.5104076266288757,-0.1512905061244964,-0.2618483901023865,jumping
1761226609979393500,-0.7559303034886717,7.0026289370685815,1.5339321535319088,-0.0503963604569435,-0.1900549381971359,-0.3016479909420013,jumping
1761226609989406500,-0.9501214077893644,7.214311201331019,2.0128186627924443,0.3010459244251251,-0.1998849958181381,-0.3056934177875519,jumping
1761226609999419400,-0.7451321383595466,7.654267383694648,2.759695598992705,0.5715876221656799,-0.1844469159841537,-0.2387460470199585,jumping
1761226610009432600,-0.0773971279352903,7.75474961914122,3.4157086074411867,0.7971215844154358,-0.1893842816352844,-0.113119788467884,jumping
1761226610019445500,0.5626358557667583,7.455860196068882,3.979277725470066,0.9651670455932616,-0.284947007894516,0.0269020274281501,jumping
1761226610029459500,0.8755077730927616,7.151568621692061,4.564653017115592,1.0481915473937988,-0.4810029864311218,0.0846021994948387,jumping
1761226610039472600,0.7059391419384629,6.405854299530387,5.24400540009737,1.0330711603164673,-0.6819297075271606,0.0672168135643005,jumping
1761226610049485600,0.418409755661711,5.153050871452689,5.81952740624845,0.8817017078399658,-0.8771888613700867,-0.0184573158621788,jumping
1761226610059498500,-0.1315180097013711,4.16384986448884,6.349221142682433,0.5900392532348633,-0.936180055141449,-0.1624033004045486,jumping
1761226610069511400,-1.135129015615955,3.7990854089707136,6.750980573120713,0.1909586787223816,-0.6929587721824646,-0.3614616990089416,jumping
1761226610079524600,-2.064902485772967,3.732441145718097,6.3927130784064525,-0.2619920074939728,-0.2990324795246124,-0.5215715169906616,jumping
1761226610089538600,-2.242183298739791,3.3433465510636564,5.787048447448015,-0.7285241484642029,-0.0485831722617149,-0.6541457176208496,jumping
1761226610099551500,-1.965065270231664,2.2623837907254694,5.522467536690831,-1.1641498804092407,-0.080427385866642,-0.7984352707862854,jumping
1761226610109564400,-1.887257515668869,0.717469639930129,5.28158489690721,-1.4332783222198486,-0.0257955677807331,-0.9084309935569764,jumping
1761226610119577300,-1.544034445351362,-1.0706079550623893,3.400072646892071,-1.391714334487915,0.2504993975162506,-0.7927315831184387,jumping
1761226610129590500,-0.1272815411753952,-3.1277018129110337,-1.081619178420305,-1.122945785522461,0.7725476622581482,-0.4549679756164551,jumping
1761226610139603700,1.063762692277506,-4.238652299755811,-5.261489618861675,-0.6603803038597107,1.5167925357818604,-0.3296110928058624,jumping
1761226610149617400,0.7803798312209546,-5.669482390731573,-8.371159515997768,-0.1429922431707382,1.8592816591262815,-0.5928980112075806,jumping
1761226610159630600,-0.2729488165320828,-8.80047681544721,-9.021859804990887,0.1497709155082702,1.2882496118545532,-1.0217746496200562,jumping
1761226610169643500,0.0414709512904286,-12.06183481913209,-6.657458239814639,0.0947775691747665,0.0444377139210701,-1.3516303300857544,jumping
1761226610179656400,1.467813667719066,-13.901200118291378,-4.10590504052043,-0.2228762954473495,-1.0362427234649658,-1.5136663913726809,jumping
1761226610189669600,2.9299329231888054,-15.261426979255676,-4.759332708650828,-0.6138297319412231,-1.5777016878128052,-1.31229567527771,jumping
1761226610199682300,3.7368665609449145,-14.64680571938157,-8.044156343597173,-1.0542407035827637,-1.6812560558319092,-0.784887433052063,jumping
1761226610209696300,3.103223205214739,-11.270178245484828,-10.355851569980382,-1.4598411321640017,-1.4992902278900146,-0.1083041131496429,jumping
1761226610219709400,2.127735666304827,-8.721333136105537,-11.951655950057503,-1.7042508125305176,-0.9977483749389648,0.6003292202949524,jumping
1761226610229722400,1.6905056940346954,-7.3264341902106995,-13.900124598014354,-1.720337152481079,-0.1976493597030639,1.254299521446228,jumping
1761226610239735300,0.9940605758242308,-6.092872053697705,-15.199661720216271,-1.28593909740448,0.9991163611412048,1.6629316806793213,jumping
1761226610249748200,-0.1351776281874626,-5.251029015123844,-16.486476138967273,-0.5031771659851074,1.7368501424789429,1.6900519132614136,jumping
1761226610259761400,-1.9543430929481984,-5.45917141482234,-16.83981611415148,0.3490615487098694,1.8184456825256348,1.4152940511703491,jumping
1761226610269775400,-3.5695638288959857,-5.567573921874165,-13.571438587093352,1.050639271736145,1.2734318971633911,0.9059288501739502,jumping
1761226610279788300,-4.067273696570098,-5.99832505351901,-8.160649218124151,1.5437978506088257,0.5933709144592285,0.1766770333051681,jumping
1761226610289801500,-4.379629919458925,-6.802558784666657,-3.3608360305249687,1.7683663368225098,-0.0586390271782875,-0.4656797051429748,jumping
1761226610299814400,-3.63634253218323,-5.651220757853984,0.6428337934017181,1.7323814630508425,-0.4334791898727417,-0.8250207901000977,jumping
1761226610309827300,-1.7186355177149175,-3.4438802244365214,3.36206528005898,1.5253726243972778,-0.4794637262821197,-0.8546060919761658,jumping
1761226610319841300,0.2828663994343951,-1.085235615351796,4.621317738145589,1.1733213663101196,-0.3352554440498352,-0.6644484400749207,jumping
1761226610329854200,1.7193660239465534,1.8413772235035892,5.422558132696151,0.6684961915016174,-0.189773216843605,-0.4370098412036896,jumping
1761226610339867400,2.4661361387714744,4.387202108278871,6.233728969630599,0.1542813330888748,-0.0013367221690714,-0.0565370805561542,jumping
1761226610349880600,3.156123313014209,6.894026523530483,6.370218922525644,-0.2496818453073501,0.3402378261089325,0.5156986713409424,jumping
1761226610359893200,4.250168842287361,9.36542306704819,5.675683583459258,-0.4804575443267822,0.7707503437995911,1.1302992105484009,jumping
1761226610369906400,4.393550308261811,9.655964348492024,4.421761965006589,-0.551001787185669,1.1586856842041016,1.5850427150726318,jumping
1761226610379920100,3.2254338728666303,8.883774691858887,3.718788467940688,-0.4964623749256134,1.2463833093643188,1.7154231071472168,jumping
1761226610389933300,1.28301210385859,8.218490581718086,4.424160842841864,-0.413221925497055,0.9805737733840942,1.488047480583191,jumping
1761226610399946500,-0.8798530357554555,7.155490179049968,6.41756051941514,-0.3172197639942169,0.6780077815055847,1.139389157295227,jumping
1761226610409959400,-1.9078791556760668,6.537804855430126,7.655795323914289,-0.1913959980010986,0.3880384862422943,0.8626623153686523,jumping
1761226610419972400,-1.5558555237874387,6.363368325978517,7.7240318247944115,-0.0042237150482833,0.0961416438221931,0.6788256168365479,jumping
1761226610429985300,-0.728543991652131,6.121066467046737,7.291762105280161,0.2507339715957641,-0.0992461889982223,0.5925835371017456,jumping
1761226610439999200,-0.2170793740656226,6.018070787474513,6.305517610034347,0.5468106269836426,-0.1446325778961181,0.5598194599151611,jumping
1761226610450012400,-0.125430433415994,6.2567953724414105,5.3682922895014284,0.8240017890930176,-0.0488088876008987,0.5696980953216553,jumping
1761226610460025300,-0.3067576722294092,6.18137568205893,4.644270159187912,1.0090196132659912,0.0595660544931888,0.5346551537513733,jumping
1761226610470038500,-0.7547989613711833,5.908913662663101,4.63288016564548,1.0822699069976809,0.1315551996231079,0.4584428369998932,jumping
1761226610480051200,-1.179093318092078,5.534869922146201,5.092238967615366,0.9716920852661132,0.0062715816311538,0.3444952368736267,jumping
1761226610490064400,-1.145743129415065,4.849157356482744,6.297119784045219,0.6934922933578491,-0.2124219089746475,0.175676628947258,jumping
1761226610500078300,-1.1879757857929911,3.8526696996420617,7.464131180807947,0.2401005625724792,-0.3247969150543213,-0.0427750162780284,jumping
1761226610510091300,-1.7009975696936248,3.217515354827046,7.989492440995574,-0.3045737147331238,-0.2375923842191696,-0.3597823977470398,jumping
1761226610520104400,-2.7119530200868844,3.313320830634236,7.520683673635125,-0.7987642884254456,0.059339415282011,-0.6889511942863464,jumping
1761226610530117400,-3.737577339562773,3.9284272436767815,5.561726364889741,-1.0891382694244385,0.4681945145130157,-0.8974908590316772,jumping
1761226610540130300,-3.618394495299458,4.553433119443059,2.657426480129361,-1.13960862159729,0.9120124578475952,-0.9782629013061525,jumping
1761226610550144500,-2.718909415096044,4.819491701537371,-0.2017296100467443,-0.9670486450195312,1.3608832359313965,-1.0142163038253784,jumping
1761226610560157200,-2.1256530148118733,4.899077863949537,-2.4875889689058064,-0.6015468239784241,1.615943193435669,-1.0750114917755127,jumping
1761226610570170400,-2.0935952040329573,5.118827699333429,-3.873056654110551,-0.0651120617985725,1.5265893936157229,-1.2133029699325562,jumping
1761226610580183300,-2.126496772159636,4.959865217867494,-4.40837115303576,0.6039690971374512,1.1362684965133667,-1.3513472080230713,jumping
1761226610590196500,-1.4736081793420015,4.597114440259337,-4.958226218488812,1.35673189163208,0.3981432616710663,-1.4212661981582642,jumping
1761226610600209200,-0.8800466586314141,4.052882475385069,-5.71719515902102,2.07905912399292,-0.2603779137134552,-1.5055699348449707,jumping
1761226610610223400,-0.8966254529885948,2.901860090392828,-6.784436852520704,2.6058266162872314,-0.4955289661884308,-1.6669639348983765,jumping
1761226610620236300,-1.387860717821121,0.8991928192585706,-7.552521996444463,2.863272190093994,-0.1819998025894165,-1.846762776374817,jumping
1761226610630249200,-1.4824419125303625,-0.8449947806030511,-7.486893047714233,2.759661674499512,0.5005689859390259,-1.981281042098999,jumping
1761226610640262400,-0.5222574489533901,-3.1924107241868973,-6.25683453540802,2.0969927310943604,0.7522664666175842,-1.9947353601455688,jumping
1761226610650275300,1.4886816837027668,-5.582758631524444,-2.4099527715176343,0.9078148603439332,0.2267510145902633,-1.8425841331481931,jumping
1761226610660288300,3.798137898987532,-7.972744135290384,2.436493864701688,-0.3874433934688568,-0.392646461725235,-1.414093017578125,jumping
1761226610670302500,5.936469778108597,-10.02651673976183,3.109834147787094,-1.2722655534744265,-0.5595870614051819,-0.6250554919242859,jumping
1761226610680315100,7.6120876996129745,-9.909595995211602,-1.4158353509396313,-1.6018778085708618,-0.4751198589801788,0.2747150659561157,jumping
1761226610690328300,7.779178542476892,-8.108249753323197,-6.438282989448308,-1.5514400005340576,-0.2118616104125976,0.930496633052826,jumping
1761226610700341500,5.720760742548108,-7.0295619521796695,-9.3506188811481,-1.1989213228225708,0.0864422619342804,1.183334231376648,jumping
1761226610710354400,2.453510173693299,-6.658700348830223,-11.158055256605149,-0.9045132398605348,-0.5180186033248901,1.2115581035614014,jumping
1761226610720367400,-0.0724457891382277,-7.38370798304975,-10.74123737324476,-0.3902560770511627,-0.5305756330490112,0.9133546948432922,jumping
1761226610730381300,-1.253713236398995,-8.945649256491661,-7.712170122087001,0.3767017424106598,0.3773586452007293,0.3629912734031677,jumping
1761226610740394200,-2.4898659739270803,-10.608630399262903,-11.771291199600697,1.0320178270339966,0.6857602000236511,0.0238755345344543,jumping
1761226610750407400,-1.650106755889952,-11.43102931717634,-10.84728601064682,1.359924554824829,0.5190839171409607,-0.3729838728904724,jumping
1761226610760420400,-0.6874770911179483,-10.574463925766944,-6.846738118132948,1.2805434465408323,0.2410826534032821,-0.7417635321617126,jumping
1761226610770433500,-0.6320078634828329,-8.917565902301668,-2.2426725435614583,0.8960588574409485,0.4137266874313354,-0.8409067988395691,jumping
1761226610780446200,0.4652000753439962,-6.6064855929464095,0.3262070535868406,0.2350854873657226,0.8515561819076538,-0.6111178398132324,jumping
1761226610790460400,2.432524814940244,-4.188961509391665,2.150695101609826,-0.5120779275894165,1.1732332706451416,-0.1727881580591201,jumping
1761226610800473300,3.708163029029965,-1.347925597795844,3.8380531452685593,-1.1025782823562622,1.0710123777389526,0.3350614607334137,jumping
1761226610810486300,4.274611209626496,1.05052027580142,4.798244915369152,-1.363515019416809,0.4318059682846069,0.7472931742668152,jumping
1761226610820499500,3.8991988111048936,1.6437848593920468,4.956054135146736,-1.3167672157287598,-0.4892709255218506,0.9646161794662476,jumping
1761226610830512400,2.362444001367688,1.4333096328318118,4.534415699762105,-1.0134094953536987,-0.9313915371894836,0.9549042582511902,jumping
1761226610840525300,-0.2446935033086687,1.3083411909043787,2.528319038701057,-0.6641843318939209,-1.002507567405701,0.7459047436714172,jumping
1761226610850539500,-2.7834540757209063,1.711506981009245,0.5594722041040658,-0.39287269115448,-0.8634437322616577,0.3862465322017669,jumping
1761226610860552200,-4.640123853163421,2.4412562567979097,0.1273252341866493,-0.3085247874259949,-0.6547120809555054,0.0750274062156677,jumping
1761226610870565400,-5.256212555241585,3.197053581556678,0.508147090536356,-0.246695339679718,-0.1640672832727432,-0.1566777229309082,jumping
1761226610880578300,-4.316148211890459,3.79694722789824,1.1691267814815045,-0.2817518711090088,0.4930181801319122,-0.3708216845989227,jumping
1761226610890591500,-4.417812935119867,5.203576359075307,1.0608183824539184,-0.312290757894516,0.8927059173583984,-0.5901926755905151,jumping
1761226610900604200,-4.2748365428149695,6.000877076089382,2.075417450046539,-0.2216972261667251,0.9325398802757264,-0.7760033011436462,jumping
1761226610910618400,-3.3479011456280943,6.380200802835822,2.814298711317777,-0.0461270958185195,0.7266405820846558,-0.8125894665718079,jumping
1761226610920631300,-1.922425859683752,6.897717194741964,3.3451989009320733,0.1578332185745239,0.5765043497085571,-0.733600914478302,jumping
1761226610930644200,-0.7382003663349896,7.504457930499314,3.430637296503782,0.3354713320732116,0.3586637675762176,-0.6151809096336365,jumping
1761226610940657400,-0.2029729611713439,8.110396117702127,3.604338497418165,0.5245534181594849,0.1493142545223236,-0.4878381192684173,jumping
1761226610950670300,0.0023849954403936,8.036998288536072,3.866488966158032,0.6934852004051208,-0.0193573907017707,-0.4326042830944061,jumping
1761226610960683300,-0.3319766499642282,7.58162241872251,3.817012695327401,0.8663533329963684,-0.2118559926748275,-0.4843548238277435,jumping
1761226610970697500,-1.2129643157728016,6.935577846580744,3.920021234381199,0.9355294108390808,-0.2139085680246353,-0.5680418014526367,jumping
1761226610980710100,-1.727208846401423,6.4407414885163305,4.196501257246733,1.0347899198532104,-0.0824498757719993,-0.5429622530937195,jumping
1761226610990723300,-1.7255568414106963,6.472145511561632,3.4261797325730323,1.0288535356521606,-0.0560729056596756,-0.469202309846878,jumping
1761226611000736300,-1.2936444109015166,6.521327183359861,4.0711534606128925,0.8943579792976379,0.052483931183815,-0.3429210782051086,jumping
1761226611010749400,-1.1073071619063617,6.411228978306054,4.701572009077668,0.710351288318634,0.2852261662483215,-0.179932028055191,jumping
1761226611020762400,-0.6530871841296553,6.306552798300981,4.476601224175095,0.5278456807136536,0.3579057157039642,-0.0773132517933845,jumping
1761226611030776300,-0.2140712052255868,5.2043935206770895,4.402752728632092,0.4362362027168274,0.1296688914299011,-0.0462157316505909,jumping
1761226611040789200,-0.0848806155584752,4.059859913182258,4.271856650221348,0.4373011887073517,-0.2769529223442077,-0.1006334349513053,jumping
1761226611050802200,-0.4772757130630314,3.4389076967209578,4.014884753163159,0.4573462903499603,-0.4551469683647156,-0.1375840604305267,jumping
1761226611060815400,-0.7874687665686011,3.219070767575502,2.9193036848858,0.5411761999130249,-0.3408688604831695,-0.0540095344185829,jumping
1761226611070828500,-0.0844542068399488,2.715940628418326,1.0517150385439396,0.6494563817977905,-0.1327966302633285,0.149585872888565,jumping
1761226611080841200,1.5676149351641535,1.371109489506483,-0.1189250701099634,0.7184937596321106,-0.026864867657423,0.4095143973827362,jumping
1761226611090855400,2.841293685749173,-0.0931429785996675,-0.1744891364216804,0.5990907549858093,-0.0530360713601112,0.4678999185562134,jumping
1761226611100868400,2.691130304549634,-1.926506406995654,1.0736574057608843,0.2946693897247314,-0.2455418854951858,0.314538300037384,jumping
1761226611110881300,1.9211264675229789,-4.439573516029119,2.257808737894893,-0.0762380138039588,-0.4652146995067596,0.0594654232263565,jumping
1761226611120894500,1.141577680298686,-5.87303395550847,2.7712700091913343,-0.4464429914951324,-0.3652715981006622,-0.2220914214849472,jumping
1761226611130907400,0.2261462584227323,-5.845058153346181,1.663525332650542,-0.8181667327880859,0.0343572422862052,-0.4010012745857239,jumping
1761226611140920300,0.1402196409426629,-5.627233148545026,0.0822045282170176,-1.148804783821106,0.5259081125259399,-0.3930589258670807,jumping
1761226611150934500,1.1290089983657,-4.715466678917408,-0.7628700396239757,-1.3874328136444092,0.9768385887145996,-0.1955937445163726,jumping
1761226611160947200,2.669471430449188,-3.268394478192925,-1.4985639030307532,-1.5915403366088867,1.1459388732910156,0.0656250715255737,jumping
1761226611170960400,3.8428210903227327,-2.44533972671926,-1.599767438489199,-1.74934720993042,1.042336106300354,0.2692812979221344,jumping
1761226611180973300,4.080132593621314,-2.308329549342394,-1.2026748308181765,-1.7977746725082395,0.7833244800567627,0.3875762522220611,jumping
1761226611190986500,3.852426246275008,-2.3809949725806714,-1.1548960115551947,-1.7085392475128174,0.4827383160591125,0.4346601366996765,jumping
1761226611200999700,3.721134446544945,-2.694904270130396,-2.0585721137076614,-1.5330578088760376,0.1025225445628166,0.4529499113559723,jumping
1761226611211014000,3.2944369742050763,-2.647852011576295,-3.237857301110029,-1.2435623407363892,-0.162719190120697,0.5476213097572327,jumping
1761226611221026600,2.988296264830232,-1.946573627990484,-4.895531569644809,-0.9143439531326294,-0.4665025174617767,0.715040385723114,jumping
1761226611231039700,2.9583915404319763,-1.592049411457777,-6.02003302745819,-0.5820727944374084,-0.5746721625328064,0.890844464302063,jumping
1761226611241053000,2.3914964928507803,-1.4185703288614748,-6.766717071434855,-0.2936133146286011,-0.4648666083812713,0.9899731874465942,jumping
1761226611251065900,1.1600141582865269,-1.4949877981096504,-7.02607411006391,-0.022777197882533,-0.3784565925598144,1.0027334690093994,jumping
1761226611261078800,-0.2044977595858275,-1.6281062287449837,-6.509059237939119,0.2414134442806244,-0.4236520230770111,0.897943377494812,jumping
1761226611271092700,-1.1998434067845345,-1.8766203863203528,-5.350997455829382,0.5392699241638184,-0.3725940287113189,0.736422598361969,jumping
1761226611281105700,-1.8744731451585888,-2.028796568647027,-4.687782553178072,0.8170836567878723,-0.283490240573883,0.5474966168403625,jumping
1761226611291118800,-2.255651559861004,-2.192479064372182,-3.96847108477354,0.982674479484558,-0.1217311546206474,0.3524650335311889,jumping
1761226611301131800,-2.46388748306185,-2.3125877913087605,-2.752864291667938,1.0087093114852903,0.1325075030326843,0.174238845705986,jumping
1761226611311144700,-2.620715582847595,-1.921207716065645,-1.4520353760898113,0.935418426990509,0.5038506388664246,0.051807165145874,jumping
1761226611321157600,-2.4719939248889684,-1.3290841192036866,-0.4501274477660655,0.7899032831192017,0.8368321061134338,-0.0443918071687221,jumping
1761226611331171800,-2.0642738324806094,-0.9195388571947812,0.4848135612219572,0.6199401021003723,1.0664422512054443,-0.1098864898085594,jumping
1761226611341184800,-1.6725173251405356,-0.5330412932962179,1.4392168110489845,0.4521476328372955,1.2405487298965454,-0.1480732858180999,jumping
1761226611351197700,-1.060106727053225,-0.2071867064088582,2.1648586515188217,0.2997932434082031,1.208889722824097,-0.2266183644533157,jumping
1761226611361211000,-0.7476807268638164,-0.0722644412219524,2.7177456320136786,0.2281656712293625,0.954368770122528,-0.3285340666770935,jumping
1761226611371223800,-0.6732548698242753,0.1674509083479642,3.277043648594617,0.2482858598232269,0.6104146242141724,-0.4303554892539978,jumping
1761226611381236700,-0.5582617323357612,0.6254647254496812,3.128495593637228,0.2954493761062622,0.3424497246742248,-0.5019058585166931,jumping
1761226611391251000,-0.6076644264735281,1.112408868959546,2.552946699479222,0.312214732170105,0.2138432711362838,-0.4999043047428131,jumping
1761226611401263600,-0.5494216424718499,1.818137217691541,1.965589294105768,0.3331748843193054,0.3192088305950165,-0.4220127165317535,jumping
1761226611411276800,-0.4111427603334188,2.386511105653644,1.1656816094636917,0.2886198461055755,0.3873707354068756,-0.3156448006629944,jumping
1761226611421289700,-0.3510521565079689,2.5633546962469813,1.0514572643905875,0.2384421676397323,0.4245958924293518,-0.2379175275564193,jumping
1761226611431303000,-0.4717091649770736,2.7063573920369146,1.3456412862509488,0.1993125230073928,0.3402702510356903,-0.1859393268823623,jumping
1761226611441315600,-0.417797688177973,2.708458748230338,1.7415999214559792,0.1619507670402526,0.0766269043087959,-0.1524775028228759,jumping
1761226611451329800,-0.2462492813833057,2.462337623271346,2.263319025748968,0.0961855351924896,-0.1378223896026611,-0.1087458282709121,jumping
1761226611461342700,-0.3259593624360859,2.349837033250928,2.455519175428152,0.0173439886420965,-0.125767320394516,-0.07303337007761,jumping
1761226611471355600,-0.6573945259347558,2.232214277911186,1.880890318724513,-0.0799704268574714,-0.1235780641436576,-0.0445749908685684,jumping
1761226611481368800,-1.01182624187842,2.074905993393064,1.8033201723098755,-0.1513836234807968,-0.0492404475808143,-0.0363317094743251,jumping
1761226611491381800,-1.1860557044506073,2.256390687790513,1.728224307054281,-0.2542678415775299,-0.1324311792850494,0.0265157185494899,jumping
1761226611501394700,-0.7231199207767843,2.3849428334236142,1.838931583917141,-0.2811764478683471,-0.2008485943078994,0.1355809420347213,jumping
