timestamp,acc_x,acc_y,acc_z,gyr_x,gyr_y,gyr_z,activity
1761226617428806700,-0.2759337140943855,0.1674567535668611,-0.5739695160120726,0.2157801985740661,-0.420218676328659,-0.0416952967643737,jumping
1761226617438819300,-0.3833884189020842,0.1490975055336952,-0.5496686029702424,0.2635238468647003,-0.4084877371788025,-0.0794384181499481,jumping
1761226617448833500,-0.3446020305205136,0.1310620826274156,-0.4818143794059753,0.2748534679412842,-0.357189416885376,-0.102024957537651,jumping
1761226617458846500,-0.2589268305182456,0.0845668734341859,-0.3608867373019456,0.2678934633731842,-0.290409117937088,-0.1002316400408744,jumping
1761226617468859400,-0.1122016070738434,0.1215881518393754,-0.3324208135351538,0.2593950629234314,-0.1701074689626693,-0.1181352660059928,jumping
1761226617478872600,-0.2107854615531861,0.2997778963446617,-0.3250122908443212,0.2428319007158279,-0.0831641033291816,-0.1118712946772575,jumping
1761226617488885500,-0.3757377580184489,0.2990045738846063,-0.2962660888314247,0.2176826000213623,-0.0203329417854547,-0.0996529757976532,jumping
1761226617498898400,-0.2571387780576944,0.0738181004047393,-0.3115934218227863,0.1706709861755371,0.0626537650823593,-0.093787133693695,jumping
1761226617508911400,-0.2530630530513822,0.0307037658214569,-0.1907885293155908,0.1100539788603782,0.1497202217578888,-0.0853965803980827,jumping
1761226617518925300,-0.2973731002252548,0.0091723174929618,0.0133598323106765,0.0415012687444686,0.1964774280786514,-0.0692947804927825,jumping
1761226617528938500,-0.2989977788176387,0.0809463448494672,0.2751934901863336,-0.0241869296878576,0.1963325440883636,-0.0672095268964767,jumping
1761226617538951400,-0.3151662388082593,0.1649585070103406,0.5629752437889576,-0.0891443490982055,0.2068391591310501,-0.098818115890026,jumping
1761226617548964600,-0.4927466923087835,0.3041816842615604,0.6882686798870563,-0.1592075824737548,0.2208639085292816,-0.1012759432196617,jumping
1761226617558977300,-0.4272752722278237,0.3090829003065824,0.6628671121269464,-0.2284094840288162,0.2664735615253448,-0.0959844589233398,jumping
1761226617568990500,-0.2309235558271408,0.334220264172554,0.5169657722860574,-0.30801722407341,0.2649129331111908,-0.0318824388086795,jumping
1761226617579003600,-0.2730070129927248,0.5621341167896986,0.5987868541434407,-0.4689892530441284,0.2016445994377136,-0.0289515480399131,jumping
1761226617589016300,-0.3205683901127427,1.0354676680982111,1.3549004052445293,-0.5725387930870056,0.2300021946430206,-0.0151244159787893,jumping
1761226617599030500,-0.3087790219891816,0.5256155272096396,1.2298574367761612,-0.6106383800506592,0.2782622575759887,0.0378337614238262,jumping
1761226617609043500,0.0190982298322021,0.0785603264957666,0.9415943293973804,-0.5850136876106262,0.3362051844596863,0.0981564819812774,jumping
1761226617619056400,0.546770397310704,-0.3737953187137842,0.7352864516496658,-0.4959078431129455,0.3204048871994018,0.2186493277549743,jumping
1761226617629069600,1.1724891705866902,-0.7159001986563205,0.2978782002031803,-0.3884119987487793,0.2100512087345123,0.3313724100589752,jumping
1761226617639082500,1.3561144572094082,-0.5496276864379644,0.3074754651099443,-0.3277560174465179,0.0032391117420047,0.3729837536811828,jumping
1761226617649095400,0.9640531947690992,-0.2737298473745584,0.61629123891294,-0.3188402950763702,-0.250982791185379,0.3232499957084656,jumping
1761226617659108400,0.2007818078026175,-0.2238034946888685,1.0876777478069066,-0.2931479811668396,-0.4800683557987213,0.199988305568695,jumping
1761226617669121500,-0.4631868358254432,-0.2763847457975149,1.07519469833076,-0.2326308637857437,-0.6352038383483887,0.0406979918479919,jumping
1761226617679135500,-0.784615422964096,-0.2426104864895343,0.7604244000375271,-0.1534058153629303,-0.7094676494598389,-0.0572083033621311,jumping
1761226617689148400,-0.6431549151148647,-0.0909410846412181,0.4357096308350562,-0.1014661788940429,-0.7363029718399048,-0.0514454878866672,jumping
1761226617699161600,-0.2302935142952948,0.1396282509207725,0.3031143472909927,-0.0917823165655136,-0.7075021862983704,0.0201605726033449,jumping
1761226617709174300,0.1237692222055047,0.4062158253252506,0.3462076390862464,-0.1154189333319664,-0.6331896185874939,0.1229623258113861,jumping
1761226617719187500,0.2891974656194448,0.5374900893986225,0.4943050276666879,-0.1806671470403671,-0.5029370188713074,0.2526440024375915,jumping
1761226617729200400,0.4310119014728814,0.3655255030184984,0.6716589058697223,-0.2454749047756195,-0.3091582059860229,0.4083664715290069,jumping
1761226617739213600,0.59854679830987,0.1817126579344272,0.5392927549064159,-0.2988502979278564,-0.126044675707817,0.5854593515396118,jumping
1761226617749226500,0.7557309815242886,-0.0515595068454742,0.3583089957684278,-0.358921617269516,-0.027685884386301,0.7253914475440979,jumping
1761226617759240400,0.6945486369393765,-0.166261406302452,0.6081167002856731,-0.4389841854572296,0.0203127115964889,0.7952809929847717,jumping
1761226617769253400,0.4432037494501099,-0.2457815177410841,0.6336024391978978,-0.5000118613243103,0.0311821363866329,0.7957978844642639,jumping
1761226617779266300,0.0245003080714493,-0.3974491660237312,0.567146391993761,-0.5677268505096436,0.047179639339447,0.741421639919281,jumping
1761226617789279500,-0.4078445590382442,-0.4914478846698999,0.6432470503777266,-0.6157196760177612,0.0905596017837524,0.6659729480743408,jumping
1761226617799292700,-0.65452152778171,-0.5963198795080185,0.6497948645859957,-0.6271992921829224,0.1457334160804748,0.6097930669784546,jumping
1761226617809305300,-0.8009119663137942,-0.7212140871554613,0.3596428747206926,-0.6176869869232178,0.2004049271345138,0.5521945357322693,jumping
1761226617819318500,-0.9050370152421296,-0.7391454651653766,0.2269984913378953,-0.5765073895454407,0.2241139411926269,0.4866792857646942,jumping
1761226617829331500,-0.9975518520060926,-0.7095727492004632,0.1605599797904491,-0.5090726613998413,0.2064404040575027,0.3748630285263061,jumping
1761226617839345400,-1.16108273736611,-0.7646540004312992,0.1396224057018756,-0.4127163589000702,0.1555983573198318,0.2361985146999359,jumping
1761226617849358600,-1.3887528443552553,-0.74857614133358,0.0644347705096006,-0.3112185001373291,0.1029029265046119,0.0836377218365669,jumping
1761226617859371500,-1.5826020764157176,-0.7373726102739572,0.0354968453168869,-0.2171369343996048,0.0771342143416404,-0.0594214089214801,jumping
1761226617869384400,-1.5860698986567556,-0.7703279544144869,-0.0098456867098808,-0.1329222023487091,0.0513356365263462,-0.1730955094099044,jumping
1761226617879397400,-1.423550893753022,-0.7835439943403005,-0.0419850382924079,-0.0838628634810447,0.0137795321643352,-0.2343689352273941,jumping
1761226617889410600,-1.1294058156635611,-0.6432862133443356,0.1326794546961784,-0.0711199045181274,-0.0530876480042934,-0.2580050528049469,jumping
1761226617899423500,-0.7777537935663014,-0.4535129985511302,0.3842652748018503,-0.0937714874744415,-0.130508080124855,-0.2562032639980316,jumping
1761226617909436400,-0.5000737837938591,-0.3968611370027065,0.5927122104048729,-0.1368329375982284,-0.2061788737773895,-0.2425228953361511,jumping
1761226617919450600,-0.2961622996633872,-0.3809843534350395,0.5686375073343515,-0.1817717254161834,-0.2274323105812072,-0.2283668965101242,jumping
1761226617929463300,-0.2692329195477999,-0.3331593569427728,0.3246697610169649,-0.2329598069190979,-0.1517186313867569,-0.2073931843042373,jumping
1761226617939476500,-0.3639375031746923,-0.2427320670425891,0.0213087454885244,-0.2668453454971313,0.0139298094436526,-0.1797271370887756,jumping
1761226617949489400,-0.557904699059017,-0.1040033953100442,-0.2967062338143587,-0.279230922460556,0.1917626559734344,-0.14883553981781,jumping
1761226617959502300,-0.6284395765420049,0.0474175847351551,-0.3453863858312368,-0.2575660943984985,0.2762797176837921,-0.119427815079689,jumping
1761226617969515500,-0.670656158567965,0.2447311319053172,-0.2820107689857483,-0.2230877578258514,0.2744991481304168,-0.0982990935444831,jumping
1761226617979528400,-0.7415575678084045,0.430626043960452,-0.1137999821811914,-0.1563088148832321,0.1704997271299362,-0.1048949658870697,jumping
1761226617989541600,-0.7727586886927486,0.5660211873561144,0.0308463891625404,-0.082831397652626,-0.0147774536162614,-0.1446418464183807,jumping
1761226617999555300,-0.9092180272538214,0.8254267413020133,0.1896358521491289,0.0372093431651592,-0.1789765357971191,-0.1636829227209091,jumping
1761226618009568500,-0.7468218450121581,0.8985410773515701,0.0458037197977304,0.2031034976243972,-0.2989857494831085,-0.1464986056089401,jumping
1761226618019581400,-0.5004353471152484,0.9449170440793035,-0.4040215301513671,0.3623724281787872,-0.4549741744995117,-0.0989909470081329,jumping
1761226618029594400,-0.3119065063599497,1.347067519661784,-0.5530220050513744,0.5254702568054199,-0.6289600729942322,-0.0320132412016391,jumping
1761226618039607600,-0.363004423575662,2.019482796856761,-0.6370522873908281,0.6979328989982605,-0.5877628326416016,0.0314450822770595,jumping
1761226618049620500,-0.57141442470178,2.3488994601398705,-1.071080248749256,0.8769591450691223,-0.3572452366352081,0.0737616494297981,jumping
1761226618059633400,-0.6712602619409561,2.346777645680308,-1.616695776936412,1.021652340888977,-0.0254283230751752,0.0781549513339996,jumping
1761226618069647600,-0.67068421561867,2.2627169682025907,-1.836150428766012,1.069246768951416,0.3180238604545593,0.0348562113940715,jumping
1761226618079660300,-0.8028028215616941,2.041359113100171,-1.594173564004898,1.015832543373108,0.5952348709106445,-0.0187288708984851,jumping
1761226618089673500,-0.7208060908764601,1.6499159094929694,-0.9939806424558162,0.8981791734695435,0.8300689458847046,-0.0278629809617996,jumping
1761226618099686400,-0.3328348742287605,1.1815367657214402,-0.4165963495641946,0.7356712222099304,0.9866703152656556,-0.0007052740547806,jumping
1761226618109699600,0.1980143889158964,0.669606064993143,0.0962403600931167,0.5272018909454346,1.0212163925170898,0.0624467991292476,jumping
1761226618119712300,0.684410177827999,0.1707756688565015,0.6037333706349134,0.3154265880584717,0.9550134539604188,0.1481295675039291,jumping
1761226618129725400,1.057033310957253,-0.377037077113986,0.7973673525094985,0.1358139514923095,0.8745601177215576,0.1934243440628051,jumping
1761226618139738600,1.1698335415113716,-0.9831371768802404,0.7590338224619626,0.0095054749399423,0.7851544618606567,0.194290280342102,jumping
1761226618149752300,1.1374850772228091,-1.479949218931794,0.6506792462050914,-0.0983823761343956,0.6645601391792297,0.1428129822015762,jumping
1761226618159765500,1.0088894577741625,-1.7531699477404354,0.7715344075948,-0.2318080067634582,0.5096651911735535,0.0729895010590553,jumping
1761226618169778400,0.849703981207311,-1.9191390930980443,1.0178016630262137,-0.3927108645439148,0.3591377735137939,0.0289019383490085,jumping
1761226618179791400,0.8428793958842754,-2.0078701004743573,1.188236555621028,-0.5560333728790283,0.2633900940418243,0.024180881679058,jumping
1761226618189804500,0.9926200216270984,-1.945291186964512,1.195146188879013,-0.7153369784355164,0.1533282995223999,0.0637471973896026,jumping
1761226618199817500,1.1108584246471525,-1.863586717224121,1.1595721866726874,-0.8397956490516663,0.026749201118946,0.1147204637527465,jumping
1761226618209830400,1.040623881817609,-1.744776213404536,0.9162690417438744,-0.8820320963859558,-0.0030608917586505,0.1676888763904571,jumping
1761226618219843300,0.8621417302370071,-1.567731547281146,0.174516024428606,-0.8393733501434326,-0.0340189412236213,0.23084157705307,jumping
1761226618229857500,0.5979404664471745,-1.276725570935011,-0.6084124683618545,-0.7143078446388245,-0.0187276042997837,0.2903986573219299,jumping
1761226618239870200,0.2528394734285771,-0.9601450083494186,-1.40875094563663,-0.5319499969482422,0.108771227300167,0.3362623751163482,jumping
1761226618249883400,-0.0904525339392945,-0.7871013945609331,-2.0989789428979155,-0.3307092785835266,0.2305575907230377,0.3791861236095428,jumping
1761226618259896300,-0.3401728889666497,-0.7461153041779994,-2.439040334314108,-0.1472409218549728,0.3554205596446991,0.391133964061737,jumping
1761226618269909500,-0.5677562675204127,-0.8512924194425344,-2.405747721043229,-0.0114577952772378,0.4613648355007171,0.3706832826137543,jumping
1761226618279922200,-0.7684319115348159,-0.98561847230196,-2.1111089411526915,0.0533337295055389,0.4791551828384399,0.3129477500915527,jumping
1761226618289935400,-0.9063898911558091,-1.144720069977641,-1.458455180004239,0.0813216865062713,0.3816954791545868,0.264886736869812,jumping
1761226618299948300,-0.8434663289267569,-1.203548106521368,-0.7708651300311088,0.0966478139162063,0.2611095309257507,0.23150035738945,jumping
1761226618309962200,-0.7151277529790997,-1.1553665516763925,-0.4543517874628305,0.0955700278282165,0.1644711345434188,0.2059430629014969,jumping
1761226618319975400,-0.7114430000517517,-1.1217927833765744,-0.2377998713374138,0.0707239657640457,0.0621411316096782,0.1690122783184051,jumping
1761226618329988400,-0.7812788989525288,-1.0395780260264873,0.0299210910111665,0.0095623414963483,-0.0635078698396682,0.1048668622970581,jumping
1761226618340001300,-0.9711645611442624,-0.9447387649029492,0.4055675905495882,-0.0740511119365692,-0.1595843285322189,0.0301402453333139,jumping
1761226618350014500,-1.077528548105806,-0.8876315608024596,0.6049509297311305,-0.1316246688365936,-0.1645865440368652,-0.0264583192765712,jumping
1761226618360027400,-1.058052278741449,-0.7835124301582574,0.3684843528240918,-0.1402836143970489,-0.0382757075130939,-0.0824910178780555,jumping
1761226618370040300,-1.0877853728998452,-0.608603607019782,-0.1846323447734117,-0.1215695887804031,0.11704783141613,-0.1531058102846145,jumping
1761226618380053200,-1.13996403455697,-0.3792933316081762,-0.459198058450222,-0.1167909428477287,0.2344467937946319,-0.2328158020973205,jumping
1761226618390067500,-1.170815903612226,-0.167542678284645,-0.3497358132123947,-0.1156551018357276,0.3132739663124084,-0.2957489490509033,jumping
1761226618400080400,-1.080534305793047,0.004541150560975,-0.149935125401616,-0.1090658456087112,0.3543648719787597,-0.3248694241046905,jumping
1761226618410093300,-0.8388485329329967,0.1855342620491981,0.0039922845065593,-0.0845051109790802,0.3618925809860229,-0.3360919654369354,jumping
1761226618420106500,-0.6729961458228528,0.3377273955106735,0.0685170713871717,-0.0334171503782272,0.3361722528934479,-0.3378206491470337,jumping
1761226618430119200,-0.5442707625146955,0.4946446348845958,0.1031008935123682,0.0203451476991176,0.2797694504261017,-0.321392148733139,jumping
1761226618440132400,-0.3326435529077425,0.6858744782269001,0.1991267340719699,0.0961510762572288,0.225840225815773,-0.2894231975078583,jumping
1761226618450145300,-0.0988770652722567,0.864105723786354,0.1839542993813753,0.1835541576147079,0.1765419244766235,-0.2403198033571243,jumping
1761226618460158500,0.0606099149918183,1.029026236873865,0.1339244863212108,0.257321298122406,0.1232168674468994,-0.1823016256093979,jumping
1761226618470171400,0.1190299187239259,1.1253542752504349,0.202709268733859,0.3171457350254059,0.1110638007521629,-0.1389253884553909,jumping
1761226618480185300,0.084432433399558,1.1471177787691351,0.2452285600334405,0.3676579296588897,0.1226857006549835,-0.1053329035639762,jumping
1761226618490198300,0.0726920189842581,1.106895658496022,0.3263023306548595,0.3749445974826813,0.1188720539212226,-0.082790307700634,jumping
1761226618500211200,0.1249568245548754,0.9829992297142744,0.5557078831344843,0.3482338786125183,0.1215245649218559,-0.0651887655258178,jumping
1761226618510224400,0.2252265862945467,0.7770090396136045,0.7202461189061403,0.287885308265686,0.1448112428188324,-0.0473405234515666,jumping
1761226618520237600,0.3179632491156459,0.5549918438196182,0.8370335924655199,0.2097516655921936,0.1700628399848938,-0.0314557179808616,jumping
1761226618530250200,0.3579786678355187,0.457526910367608,0.9499550382465124,0.1261345297098159,0.1479482203722,-0.017827259376645,jumping
1761226618540263400,0.3731318133037537,0.4256365651100873,1.1248007330209016,0.0385241508483886,0.1000955402851104,-0.018279954791069,jumping
1761226618550276400,0.3389282957330345,0.3597217851758003,1.2572948942780493,-0.0344256907701492,-0.0194585528224706,-0.0200296528637409,jumping
1761226618560290300,0.3059511050868779,0.3119114017307758,1.331498779129982,-0.0844457894563674,-0.1174896284937858,-0.0251826848834753,jumping
1761226618570303500,0.3019018296960741,0.2114654066413641,1.1968062310457228,-0.0924850702285766,-0.1877739131450653,-0.0222300384193658,jumping
1761226618580316400,0.2374835719298571,0.1697539245933294,0.7780342910081147,-0.0662320926785469,-0.2032451182603836,-0.0233423262834548,jumping
1761226618590329300,0.1780610035590827,0.2032867763608694,0.2768009253829717,-0.0222023166716098,-0.1816412955522537,-0.0238411370664834,jumping
1761226618600342300,0.180188005650416,0.2898901240587234,-0.0784480982929468,0.0211363546550273,-0.1485503613948822,-0.0152260158210992,jumping
1761226618610355500,0.197391800038144,0.3696843762636184,-0.2638052502095699,0.0427708104252815,-0.1075193062424659,0.0116420835256576,jumping
1761226618620368100,0.3345994727484881,0.3802642224669456,-0.2420586978256702,0.0395974963903427,-0.0785463899374008,0.0540525540709495,jumping
1761226618630381300,0.4340924779620021,0.4155395339876413,-0.0930997239798307,0.0265040639787912,-0.0563252344727516,0.0971843153238296,jumping
1761226618640395500,0.3979362188883125,0.4425163882404566,0.0275695594489574,0.0083622485399246,-0.0423371940851211,0.1230548322200775,jumping
1761226618650408200,0.3110466015949845,0.422612248852849,0.0837245773911476,-0.0205394402146339,-0.0343929827213287,0.1385821253061294,jumping
1761226618660421400,0.1847469475964084,0.3117424749046564,0.1469365281075239,-0.0465959049761295,-0.0312794223427772,0.1468499451875686,jumping
1761226618670434300,0.1471709213852882,0.1656201857894658,0.1751513997226953,-0.0548911169171333,-0.0147001780569553,0.1381454020738601,jumping
1761226618680447200,0.1055750650735572,0.0724456430077552,0.0844973153293132,-0.0481192395091056,-0.0123584168031811,0.1185160800814628,jumping
1761226618690460400,0.004446165753901,0.0683054744631052,0.0397024803131818,-0.0396370701491832,-0.0467621982097625,0.0936381593346595,jumping
1761226618700473300,-0.0316621259922161,0.1170826571136713,0.1524339564800262,-0.0184044688940048,-0.0807951316237449,0.080955296754837,jumping
1761226618710486500,-0.0171883410902693,0.1130108776301145,0.1554746393501758,0.0306227281689643,-0.0800241455435752,0.0732795372605323,jumping
1761226618720500200,-0.0696247038355097,0.109190442559123,-0.1006459015756845,0.0943847447633743,-0.0494797900319099,0.0629688575863838,jumping
1761226618730513400,-0.1277335227265953,0.1709767443865537,-0.3284738294750451,0.1649824827909469,0.0134174171835184,0.0452686920762062,jumping
1761226618740526300,-0.2179421649074182,0.2369318563312292,-0.4073346002221107,0.234107419848442,0.0759301632642746,0.0342971570789814,jumping
1761226618750539300,-0.2277625345129519,0.2701531579315662,-0.3872667947053909,0.2960725128650665,0.1226020604372024,0.0278059653937816,jumping
1761226618760552400,-0.1369526019707322,0.3083499098569154,-0.2280073761194944,0.3468949198722839,0.1337641775608062,0.0232263132929801,jumping
1761226618770565400,-0.077864891577512,0.3649503334790468,0.0235170691877603,0.3864498138427734,0.1167534962296485,0.0209533050656318,jumping
1761226618780578300,-0.0426097825946286,0.4375871151447296,0.2873562216669321,0.4199750125408172,0.0611881911754608,0.0142524940893054,jumping
1761226618790591200,-0.0647433250021189,0.5891226614803076,0.4886234748989343,0.4487283527851105,-0.0090199224650859,-0.0020606995094567,jumping
1761226618800605200,-0.1003263142324984,0.6661684917598962,0.6589695201665162,0.4853711128234863,-0.0825637429952621,-0.0194559153169393,jumping
1761226618810618400,-0.0866463831219822,0.7943500505149363,0.6920306627690792,0.5421760678291321,-0.1947379559278488,-0.04036146402359,jumping
1761226618820631300,-0.0960144058501347,1.0282324561476708,0.6892652897089719,0.6373938918113708,-0.3667680621147156,-0.0502706654369831,jumping
1761226618830644500,-0.1344236680150032,1.42370827627182,0.5032534732758999,0.8040547966957092,-0.4811023473739624,-0.0438079722225666,jumping
1761226618840657200,-0.104336353591457,1.7945669570118188,-0.0994055461257696,1.022053360939026,-0.6256144642829895,-0.0528419055044651,jumping
1761226618850670300,-0.4401191909056157,2.324235559004545,-0.7395107913464307,1.2699095010757446,-0.7950290441513062,-0.1153281852602958,jumping
1761226618860683500,-1.074402817300707,2.834270070722699,-1.1925438974261282,1.5296143293380735,-0.8915155529975891,-0.1878972947597503,jumping
1761226618870696200,-1.4739765742629765,3.211225314772129,-1.706370202642679,1.8033660650253296,-0.9168920516967772,-0.2150426357984542,jumping
1761226618880710400,-1.4109005248859523,3.5656028163105247,-2.167663187545538,2.024350643157959,-0.9963287711143494,-0.1810052692890167,jumping
1761226618890723300,-1.2527984596416353,3.929700332352519,-2.332832999219,2.1854522228240967,-1.053455471992493,-0.0962869375944137,jumping
1761226618900736300,-1.0105610442481934,3.933948052924871,-2.486806586356461,2.272479772567749,-0.9539459943771362,0.0033514169044792,jumping
1761226618910749400,-0.7919698773801326,3.530497016137838,-2.850844188904762,2.2329719066619877,-0.7073907852172852,0.0630331262946128,jumping
1761226618920762400,-0.7385944802191108,2.7866233534067866,-2.906322330498696,2.045523166656494,-0.4097164273262024,0.0504777319729328,jumping
1761226618930775300,-0.7761773380298167,1.7698229763776063,-2.58243582881391,1.720528244972229,-0.1498377025127411,0.0013426763471215,jumping
1761226618940788200,-0.6910792803283781,0.7512006446182727,-2.100577025744319,1.3487260341644287,0.0220279935747385,-0.0281900484114885,jumping
1761226618950801400,-0.2194450620173476,-0.1024421373426914,-1.8933046868786212,1.0603400468826294,0.2590482831001282,-0.0352450273931026,jumping
1761226618960814300,0.441572129660286,-0.6872182940512895,-2.4080375855460763,0.9335193634033204,0.5650023221969604,-0.0418269485235214,jumping
1761226618970828300,0.3138633760487661,-0.8946674507886171,-3.2600723477885127,0.8873846530914307,0.8498231172561646,0.0536979772150516,jumping
1761226618980841500,1.5991868621222671,-2.1332599826842547,-3.662333298008144,0.898452639579773,1.0236780643463137,0.1052766442298889,jumping
1761226618990854100,2.1081424925625325,-2.636740250453353,-3.4524881860449907,0.980781316757202,1.1946088075637815,0.0961939319968223,jumping
1761226619000867300,1.472033038979769,-2.3333511778742078,-3.1593823148101565,1.1113500595092771,1.5959709882736206,0.1119151785969734,jumping
1761226619010880300,1.7410311816573143,-2.50932909154892,-2.9883804359823465,1.218071222305298,2.0597968101501465,0.2420404255390167,jumping
1761226619020893400,2.9022631182357665,-2.821267381286621,-2.372127190992236,1.2439833879470823,2.404425859451294,0.4485078454017639,jumping
1761226619030906400,4.208275281670689,-3.039618455788493,-0.814552588327229,1.229317307472229,2.456274509429932,0.7084739208221436,jumping
1761226619040919300,4.645141681325435,-3.173297442916036,1.0842144556105135,1.129398226737976,2.260021448135376,0.9693141579627992,jumping
1761226619050933200,4.46018814177364,-3.1634780596911907,3.1119691139891743,0.961368978023529,1.7090083360671997,1.1084494590759275,jumping
1761226619060946200,3.1631720624819395,-2.73995512573421,4.495853621655702,0.5951029658317566,0.8287935256958008,1.1622916460037231,jumping
1761226619070959400,1.4205002740107475,-1.5901573141008614,6.239764158141613,0.0342026278376579,0.1021787524223327,1.127951979637146,jumping
1761226619080972500,0.4811179215744137,-0.9826906021565198,7.543774041843414,-0.6950647830963135,-0.1057737916707992,1.025180697441101,jumping
1761226619090985200,-0.2734225532573647,-0.2252203757494688,7.5662921631217,-1.6070283651351929,0.232410117983818,0.8175237774848938,jumping
1761226619100998400,-1.393792592088133,0.3479074287414551,7.201839257770776,-2.602806329727173,0.7618731260299683,0.5137900114059448,jumping
1761226619111011300,-2.170469477137923,0.5034709154188632,7.127851061496139,-3.42268705368042,1.2208248376846311,0.11614890396595,jumping
1761226619121024300,-2.899523464138806,0.7184832008868456,6.801635824602842,-3.835919380187988,1.0933698415756226,-0.2662965357303619,jumping
1761226619131038500,-2.936518731319904,1.081242746323347,6.167104580122232,-3.7508180141448975,0.5677148103713989,-0.6239784955978394,jumping
1761226619141051400,-3.066719813203812,1.794025689741969,5.361446369129419,-3.262428045272827,-0.1040567681193351,-0.8298236727714539,jumping
1761226619151064300,-1.8310231488801536,2.1242238587915896,3.478885779105126,-2.522217273712158,-0.9291714429855348,-0.9130557179450988,jumping
1761226619161077200,-1.0683929824266585,3.0980659685820338,2.079119811695814,-1.5578577518463137,-1.5948336124420166,-0.9009295701980592,jumping
1761226619171090400,-1.0913843472398816,3.6897213634103534,0.4462129046708345,-0.5455373525619507,-2.02647066116333,-0.8631094694137573,jumping
1761226619181103000,-1.1444190412044524,3.762289171493053,-1.2177210087805983,0.4277015626430511,-2.4071195125579834,-0.8099008798599243,jumping
1761226619191116300,-1.5800028537027535,4.080453203877807,-1.7401193275094031,1.2876482009887695,-2.5957155227661133,-0.665926456451416,jumping
1761226619201129500,-1.2394114470630884,3.916203721919656,-1.9649466122880577,1.9038485288619995,-2.5964879989624023,-0.4146944284439087,jumping
1761226619211143700,-0.4057400245070457,3.976253409212827,-1.4443600191563366,2.1943447589874268,-2.654749870300293,-0.1618925333023071,jumping
1761226619221156600,-0.413215657617338,4.553998936632276,0.3351566682398319,2.218118667602539,-2.3955507278442383,0.0707747489213943,jumping
1761226619231169800,-0.1903177517323754,4.424145645272732,1.8470140603467824,1.985098361968994,-2.0039072036743164,0.0893284603953361,jumping
1761226619241182500,-0.7243905252344905,4.248857467427849,3.2529441033437845,1.4847698211669922,-1.8782318830490112,0.1404790133237838,jumping
1761226619251195600,-1.3035105558775364,4.316541010600329,4.790349778205156,0.8810335397720337,-1.6152725219726562,0.0182729344815015,jumping
1761226619261208600,-1.223454803192243,3.4766274787843225,5.83918429287672,0.3742935359477997,-1.29017174243927,-0.2648101449012756,jumping
1761226619271221800,-2.817067006987333,2.540722008678317,4.479839475443959,-0.0795863270759582,-1.4391404390335083,-0.5182817578315735,jumping
1761226619281234700,-3.502477374833822,2.5149329029053447,4.552741337786615,-0.1896179467439651,-1.4010028839111328,-0.8493545055389404,jumping
1761226619291247600,-3.6213016149178143,1.8749597596317529,2.1242963395059107,-0.0984126552939415,-1.3070900440216064,-1.0682181119918823,jumping
1761226619301261600,-3.0869463164135813,2.104399798902869,-0.6774827897176147,0.2163378149271011,-1.1528855562210083,-1.264588713645935,jumping
1761226619311274500,-2.8858605572283267,2.60593594686687,-2.910439410428703,0.487592488527298,-0.8802247047424316,-1.2259254455566406,jumping
1761226619321287700,-1.5851324716761708,3.002818711179495,-3.871403918467462,0.70903480052948,-0.3628741800785064,-1.2142386436462402,jumping
1761226619331300600,-1.5593641164302825,3.521680087953806,-4.443585674279928,0.9065598249435424,0.126469686627388,-1.1307083368301392,jumping
1761226619341313500,-1.276841014008224,3.947557476082444,-4.207051877355576,1.021431565284729,0.1401995718479156,-0.8451675176620483,jumping
1761226619351326700,0.1142053846443071,4.203918840026855,-3.299346081295609,1.2876075506210327,0.1466236412525177,-0.6193649768829346,jumping
1761226619361339600,0.3614074001751839,3.961799936446548,-3.674381463198364,1.7127323150634766,0.2495646327733993,-0.4068708717823028,jumping
1761226619371352600,0.3431663716942071,2.802057653903961,-5.4870379113912575,2.091038703918457,0.3831360042095184,-0.2770039439201355,jumping
1761226619381366800,0.0973622402625158,1.2961106548845769,-5.846214337643981,2.2894632816314697,0.5314459800720215,-0.158260703086853,jumping
1761226619391379700,0.0401176004527136,-0.9525298571705818,-5.034239198589325,2.272143840789795,0.669555127620697,-0.0418059825897216,jumping
1761226619401392600,1.2342888433523476,-3.5535809546053407,-3.740176416145265,2.0334503650665283,0.9117866158485411,0.1036427691578865,jumping
1761226619411405600,2.7290795114547013,-6.1438540529161685,-2.585125798550248,1.6730055809020996,0.802653968334198,0.4207940697669983,jumping
1761226619421418800,4.67592377308011,-8.100761443394422,-0.7827285863041877,1.4492018222808838,0.4730440974235534,0.6610856056213379,jumping
1761226619431431400,5.423025165686011,-9.913940161895752,-0.1390634566448629,1.327552080154419,0.2106992900371551,0.8159180879592896,jumping
1761226619441444600,4.058492131960392,-11.273116052502392,-1.0371797327131032,1.158551812171936,0.1894059628248214,0.9416831135749816,jumping
1761226619451457800,2.88052942533344,-11.5714291369915,-1.3460744169712069,0.8127377033233643,0.3736695349216461,1.0508055686950684,jumping
1761226619461471500,2.350422139662504,-11.168038890480997,-0.7721436255343258,0.2373400628566742,0.6855759024620056,1.1704272031784058,jumping
1761226619471484700,2.425942660070956,-10.291646516573428,0.8104846082359551,-0.4829757511615753,1.0407556295394895,1.2700637578964231,jumping
1761226619481497600,2.580505153012276,-9.128667736327648,2.565798582267761,-1.1535738706588743,1.330000400543213,1.389897108078003,jumping
1761226619491510500,2.80094063257277,-7.725435846373438,3.576374385693669,-1.627178192138672,1.354259967803955,1.557475209236145,jumping
1761226619501523700,3.0468092440754173,-6.018779228004813,4.155985122463107,-1.878486156463623,1.1772648096084597,1.7074055671691897,jumping
1761226619511536600,2.67253520193398,-4.341199651038647,4.415833744001389,-1.973743200302124,0.8141513466835022,1.8366581201553345,jumping
1761226619521549800,2.068084622940421,-2.638444716283679,4.4764948411911725,-1.942007303237915,0.2571364343166351,1.9341312646865845,jumping
1761226619531562500,1.6096972963511942,-0.4402332457393407,4.443326731082797,-1.7967569828033447,-0.3826696574687958,2.0135018825531006,jumping
1761226619541575700,1.380657216183096,1.7031664381653069,3.986535733774304,-1.579079270362854,-0.9522504806518556,2.01792049407959,jumping
1761226619551589600,0.8653560161083936,3.2428847738832234,3.2005840937703844,-1.3800489902496338,-1.3251971006393433,1.8964498043060305,jumping
1761226619561602600,-0.7348483524933457,3.745114749330282,2.913497336694598,-1.2913302183151243,-1.4616186618804932,1.8112893104553225,jumping
1761226619571615700,-1.8967011974491177,4.251638622578978,3.094186496800184,-1.2122803926467896,-1.3024100065231323,1.6809571981430054,jumping
1761226619581628700,-2.8463541840091344,4.401975899040699,3.0406837469324466,-1.2406476736068726,-0.9811269640922546,1.5100984573364258,jumping
1761226619591641600,-3.222907569259405,4.008234939885139,3.1787261899665,-1.3770695924758911,-0.5309557914733887,1.3512600660324097,jumping
1761226619601654500,-2.160405325371772,3.772301446941495,3.4669048339322206,-1.5733168125152588,-0.2948496341705322,1.14375901222229,jumping
1761226619611667700,-3.1993793941557405,4.662848018407821,3.604528759293258,-1.691573143005371,-0.2833479642868042,0.8639289140701294,jumping
1761226619621680600,-3.946214537040889,4.715557279810309,4.027994117844105,-1.731703281402588,-0.2681840658187866,0.6802066564559937,jumping
1761226619631694600,-1.7893699728906154,4.3241409642100335,4.035867919959128,-1.7023746967315674,-0.2730949223041534,0.5058942437171936,jumping
1761226619641707800,-0.9611620764374732,4.81943617195785,4.161481674052775,-1.6359074115753174,-0.3786289691925049,0.3283094763755798,jumping
1761226619651720400,-0.7258619129613041,4.72833200570941,4.098527205228805,-1.5310877561569214,-0.6942343711853027,0.1364684253931045,jumping
1761226619661733600,-0.1020411553263664,4.746002102434635,4.180742839361727,-1.3664474487304688,-0.9888688325881958,-0.0760614648461341,jumping
1761226619671746800,0.207116271521151,4.837287470468879,3.5562726779073475,-1.2297732830047607,-1.1511048078536987,-0.2391249537467956,jumping
1761226619681759500,0.5064145676553249,5.014495802721381,2.723490313145518,-1.1168222427368164,-1.1201082468032837,-0.3129996657371521,jumping
1761226619691772700,1.0777484744668009,5.118500367075205,1.934553519850969,-0.9589465856552124,-0.8702777028083801,-0.2934179902076721,jumping
1761226619701785600,2.258124379715323,5.022814133733511,0.8302361874103545,-0.8356231451034546,-0.3471619486808777,-0.3461686968803406,jumping
1761226619711799600,1.4312816341355443,5.815155767035484,0.1675675204649567,-0.9293099641799928,-0.0968136489391326,-0.37000373005867,jumping
1761226619721812700,1.2506482958704233,5.235495345905423,1.4167571419596672,-1.0620115995407104,-0.2216949313879013,-0.3469085693359375,jumping
1761226619731825700,2.1517738367572425,4.242708297148346,2.7953873823598028,-0.942571759223938,-0.2671359181404114,-0.338266372680664,jumping
1761226619741838600,2.3932421674743294,3.4680116261303424,1.585023750604689,-0.773902416229248,-0.3942837715148926,-0.3159734010696411,jumping
1761226619751851500,1.508521233421564,3.286077434399724,0.0477843722209334,-0.5874028205871582,-0.4285229742527008,-0.3609163761138916,jumping
1761226619761864700,0.9684408352687954,2.3428929132014518,-0.9027613253951072,-0.3625511229038238,-0.5051610469818115,-0.4483785629272461,jumping
1761226619771877600,0.3752545776113867,1.7435294282138347,-2.049487182237208,0.0283639170229434,-0.4922300577163696,-0.5565958619117737,jumping
1761226619781890600,-0.3525239826261997,1.3487281463503835,-3.9788644684940575,0.5199480652809143,-0.3123820424079895,-0.6624811887741089,jumping
1761226619791903700,-0.8029477829903364,0.9102432055830956,-5.830524601081013,1.019811749458313,-0.0277670845389366,-0.757509708404541,jumping
1761226619801917400,-1.3162363280683755,0.6117705466181039,-6.6012020995855325,1.4185250997543335,0.2446166276931762,-0.8117249608039856,jumping
1761226619811930600,-1.4335206452339886,0.3501514082759618,-6.18919015520215,1.6442567110061646,0.132484495639801,-0.7979207634925842,jumping
1761226619821943600,-1.29478510536924,-0.5771247651726007,-4.882405546090006,1.761337399482727,-0.0417535156011581,-0.8048720359802246,jumping
1761226619831956700,-1.2216219617418944,-2.2868892864286896,-4.156885286173225,1.8748083114624023,-0.1069056242704391,-0.8419049382209778,jumping
1761226619841969700,-1.8335683033183217,-3.446296053406596,-4.882828447677195,2.031838893890381,0.1393718868494033,-0.9095693230628968,jumping
1761226619851982600,-2.3196546609550714,-4.230346828225255,-6.479895102775097,2.185899257659912,0.833642303943634,-0.8549976944923401,jumping
1761226619861995800,-1.632450249298662,-4.891268651503324,-7.696388031065464,2.120572090148926,1.828587770462036,-0.566230297088623,jumping
1761226619872008400,0.295834711676836,-6.006452830395102,-6.975042426484823,1.7029008865356443,1.9565033912658687,-0.0664601698517799,jumping
1761226619882022700,2.7302985318556425,-7.184238134628534,-2.6733283981382847,1.1984111070632937,1.4530810117721558,0.357246845960617,jumping
1761226619892035800,3.4272514534577727,-8.789301925960183,0.9454898755311966,0.8609470725059509,0.9428228735923768,0.7109130620956421,jumping
1761226619902048500,2.7764032804265617,-10.07867947319746,0.8441326108157634,0.7719236612319946,0.3951433002948761,0.7647942304611206,jumping
1761226619912061700,0.1934334908664226,-10.248999799501895,-1.2118451024845245,0.7646151185035706,-0.0497039556503295,0.6133647561073303,jumping
1761226619922074600,-2.2968714589998123,-10.098508793783187,-2.568116796082258,0.6352388262748718,0.1534627825021743,0.4780772626399994,jumping
1761226619932087600,-1.9865680769875644,-9.411653487825394,-3.3168221167534586,0.2627589404582977,0.879494845867157,0.4388931095600128,jumping
1761226619942100500,-1.9601001951701935,-7.339747260770201,-2.7918028018713,-0.3490805327892303,1.6901401281356812,0.6032319068908691,jumping
1761226619952113700,-0.6218086871601641,-5.272340683221817,-0.4508376418620348,-1.0266902446746826,2.1903693675994877,0.8987354636192322,jumping
1761226619962126800,1.0637553126886483,-3.609111118647456,2.981114828893542,-1.6243462562561035,2.06751036643982,1.2087689638137815,jumping
1761226619972140500,2.089412657651305,-2.8023721266806123,6.145513510560989,-1.9525457620620728,1.592694878578186,1.5415959358215332,jumping
1761226619982153700,3.2457620828852054,-2.343851529100537,7.217785014921426,-2.004102945327759,0.7653224468231201,1.7057820558547974,jumping
1761226619992166400,1.6007684322252869,-1.0720189909040927,5.990377893906832,-1.9097996950149536,-0.4717291295528412,1.6105901002883911,jumping
1761226620002179600,-1.412640938812494,0.1539408539116382,5.349702739843726,-1.795941948890686,-1.386196851730347,1.415209412574768,jumping
1761226620012192800,-1.991515470261872,-0.4522241277843714,4.512233678570389,-1.7679145336151123,-1.7113418579101562,1.2028696537017822,jumping
1761226620022205700,-2.6931241087153555,-0.1654325542628765,3.1507065486624835,-1.820506572723389,-1.440151572227478,0.9773513078689576,jumping
1761226620032218600,-3.57116015817672,0.373702379733324,1.5828411458685994,-1.9380816221237185,-0.990464210510254,0.8073281645774841,jumping
1761226620042231600,-3.429207848222553,0.9944207874387502,0.4586754958808421,-1.9850085973739624,-0.4993948936462402,0.6599176526069641,jumping
1761226620052244700,-2.7729814892843363,1.6081337002962828,-0.0929407340258359,-1.9302270412445068,-0.1973585933446884,0.4703522622585296,jumping
1761226620062258700,-2.4512702858120203,1.863937430357933,-0.0960717255279421,-1.6764748096466064,-0.0209683869034051,0.2612557709217071,jumping
1761226620072271600,-2.111931071190536,1.8619594082832336,0.1602937300696968,-1.3718390464782717,-0.046905443072319,0.035101979970932,jumping
1761226620082284800,-1.8138249074503776,1.7461328887104988,0.4855962360322475,-1.1593260765075684,-0.1824558824300766,-0.0745851397514343,jumping
1761226620092297500,-0.7573308179363608,2.5194658701598645,1.8314052800655365,-0.9250202178955078,-0.2620258033275604,-0.2725666761398315,jumping
1761226620102310700,-0.11007248609066,2.481878774565458,2.3004490252256398,-0.7447810173034668,-0.4826874136924743,-0.4773709774017334,jumping
1761226620112323600,0.0329796017989516,2.9992753394842144,3.1020746197015043,-0.6024515628814697,-0.6966249942779541,-0.6536991596221924,jumping
1761226620122336500,0.69570321380198,3.4007769957691427,3.5436353146523234,-0.4675304889678955,-0.6776682734489441,-0.7667633295059204,jumping
1761226620132349700,1.3090961009249091,4.096942566385865,3.179942872279882,-0.3961154222488403,-0.564396858215332,-0.8033559918403625,jumping
1761226620142363600,1.7166817532986405,4.920377257087827,3.053588528952002,-0.3634352385997772,-0.4154542684555053,-0.788750171661377,jumping
1761226620152376600,2.1881226227283475,5.344699232468009,3.235464268493652,-0.3443478345870971,-0.2134172916412353,-0.7663723826408386,jumping
1761226620162389500,2.5914883193194864,5.617140793597698,3.185032888895273,-0.3240909278392792,-0.0363489165902137,-0.721551775932312,jumping
1761226620172402700,2.919174213287234,5.79276448700726,3.2647219271600245,-0.3264683485031128,-0.0122893871739506,-0.6622312068939209,jumping
1761226620182415600,3.219313344159722,5.714793358576298,3.755436236858368,-0.2952513992786407,-0.0811389163136482,-0.669555127620697,jumping
1761226620192428500,2.961930235952139,5.366150601297616,3.943654038903117,-0.2628737390041351,-0.3263180553913116,-0.7272540926933289,jumping
1761226620202441700,2.5256848908051848,4.884692195722461,3.8204473459512,-0.1704948395490646,-0.5477298498153687,-0.8046739101409912,jumping
1761226620212454700,2.0969532822892067,4.384837132713199,3.0205361541777846,-0.0316389538347721,-0.5405986905097961,-0.8944908976554871,jumping
1761226620222467600,1.6050634990707038,4.07294794281423,1.6803303369790314,0.094086155295372,-0.3705388009548187,-0.983976662158966,jumping
1761226620232481800,1.0958517019122838,3.847188637882471,0.6729775872528553,0.1799129247665405,-0.2295020520687103,-1.037172555923462,jumping
1761226620242494500,0.7752320930689572,3.508080601668357,0.2405693360507488,0.2405519187450409,0.0495145544409751,-1.0666824579238892,jumping
1761226620252507600,0.2946469631969928,2.9186773696810007,-0.336146848320961,0.2586936354637146,0.3351292610168457,-1.0404305458068848,jumping
1761226620262520600,0.0160974405810236,2.4462691165238617,-1.1028390765815972,0.3128616213798523,0.5432158708572388,-1.0122554302215576,jumping
1761226620272533800,-0.4469628462553024,1.963725253799557,-1.849630672585964,0.4791416525840759,0.7241731286048889,-1.0379815101623535,jumping
1761226620282546400,-1.493709156475961,1.1622189017891884,-3.0777064866423607,0.7123674750328064,0.9015033841133118,-1.1359754800796509,jumping
1761226620292559600,-2.603712425598502,-0.0546580573827028,-4.270371380099654,0.9441950917243958,0.9156415462493896,-1.3190480470657349,jumping
1761226620302572800,-3.3140810013517736,-1.2881781083196402,-4.792027940550447,1.1842868328094482,0.9035491347312928,-1.4958856105804443,jumping
1761226620312586500,-3.544346677792072,-2.1324486663013698,-5.382154226115346,1.4232202768325806,1.2398121356964111,-1.518870234489441,jumping
1761226620322599700,-2.684796133092046,-2.842500723451376,-6.481968986439704,1.5347460508346558,1.8182029724121092,-1.3741352558135986,jumping
1761226620332612600,-1.083839630948752,-4.067051870512962,-6.946271674552559,1.416668176651001,1.9924134016036987,-0.9716357588768004,jumping
1761226620342625500,1.3052818033337592,-5.627597305682301,-5.506040718024969,1.2331783771514893,1.544560432434082,-0.4561146795749664,jumping
1761226620352638700,3.779112296000122,-7.932884418588876,-4.01440807556212,1.1906416416168213,0.6311310529708862,0.041682343930006,jumping
1761226620362651600,4.823684184791148,-9.424386128148436,-4.053561689820885,1.4029134511947632,-0.1367420256137848,0.5220481157302856,jumping
1761226620372664600,4.194773410540819,-9.520623565632103,-6.109802730232476,1.804900288581848,-0.7605193257331848,0.9427175521850586,jumping
1761226620382677500,2.9565464970871806,-9.11129866837561,-8.761887264811993,2.280871152877808,-1.0949150323867798,1.125889778137207,jumping
1761226620392690700,0.7407825648479163,-8.83834038989544,-10.28507882862091,2.6407041549682617,-0.8862976431846619,1.0515953302383425,jumping
1761226620402704600,-2.042249193807691,-8.331271742245555,-10.720070666575433,2.676969051361084,-0.1227505505084991,0.85826575756073,jumping
1761226620412717600,-3.827533797080815,-7.1684034366369245,-9.333543827706574,2.2663159370422363,0.972986340522766,0.709351658821106,jumping
1761226620422730800,-3.9455031739011406,-5.727908276215195,-5.907572184926271,1.4340808391571045,1.9582470655441284,0.6783121228218079,jumping
1761226620432743400,-2.760218161562085,-4.500479527890682,-0.8224868884578347,0.3301959335803985,2.564663410186768,0.650740385055542,jumping
1761226620442756600,-1.3323095109909773,-3.582138356047869,4.826329438602924,-0.8575161695480347,2.6881632804870605,0.6508253216743469,jumping
1761226620452769500,-0.0135746441051363,-2.549154905980825,9.472745377647875,-1.986463189125061,2.2365190982818604,0.7406848669052124,jumping
1761226620462782700,1.6638960656590758,-1.5502023203313349,12.712493022549152,-2.792356491088867,1.374976396560669,0.8135899901390076,jumping
1761226620472795600,2.290909335725009,-0.599778495529294,13.114402090591192,-3.178936243057251,0.2385531067848205,0.7543300986289978,jumping
1761226620482808600,1.3566747214406727,0.3913637086302042,10.947149237412214,-3.201619863510132,-0.8755390048027039,0.5692577362060547,jumping
1761226620492822500,-0.3586458265073597,1.0840841072291134,7.692875639030337,-2.966007709503174,-1.7379757165908811,0.3661762475967407,jumping
1761226620502835500,-1.469243554391712,1.935305799522996,4.128664569339156,-2.55411958694458,-2.095710515975952,0.2688380181789398,jumping
1761226620512848600,-2.009863758509606,2.890248563054204,0.900329714334011,-2.0584805011749268,-1.9103789329528809,0.3219606280326843,jumping
1761226620522861800,-1.9616803039684887,3.6793408391714095,-1.479250130751729,-1.5753926038742063,-1.5054351091384888,0.354126900434494,jumping
1761226620532874500,-1.9126729658238588,3.815148070499301,-2.207926516611874,-1.2667490243911743,-1.3016642332077026,0.3189049959182739,jumping
1761226620542887700,-1.8055640057139095,3.449695048195124,-0.9570917582586408,-1.1637170314788818,-1.2415827512741089,0.2828402817249298,jumping
1761226620552900600,-1.256160775681585,3.09712255025208,1.0344862558454275,-1.1846294403076172,-1.0553889274597168,0.2474322021007537,jumping
1761226620562913500,-0.7829080345243216,3.118250093954801,2.247971819013357,-1.268210530281067,-0.7766161561012268,0.1910940259695053,jumping
1761226620572927700,-0.618917203502357,3.321502968046069,2.959240850737691,-1.3450413942337036,-0.5832105278968811,0.1223589032888412,jumping
1761226620582940700,-0.4568193466201424,3.510170851945877,3.599017594656348,-1.339688420295715,-0.523854672908783,0.0267091523855924,jumping
1761226620592953600,-0.0972302479133009,3.55087754086554,3.810118259638548,-1.2354339361190796,-0.5604190230369568,-0.0599327981472015,jumping
1761226620602966500,0.3309934110805392,3.75563731238842,3.5195933448076246,-1.0338906049728394,-0.5719432830810547,-0.1268058121204376,jumping
1761226620612979700,0.5941010344147681,3.980872885707021,2.9705379052996634,-0.7619060277938843,-0.4927794933319092,-0.1863168030977249,jumping
1761226620622992600,0.7358011231735349,4.138871490576863,2.4206372471392155,-0.4920671582221985,-0.4232761263847351,-0.253670871257782,jumping
1761226620633005600,0.8338885724380611,4.574428561198711,2.326452650532126,-0.2533057034015655,-0.400231271982193,-0.2902637720108032,jumping
1761226620643018800,1.1614905875146389,4.930518127351999,2.787926837220788,-0.0706886202096939,-0.3242760300636291,-0.2991606593132019,jumping
1761226620653031700,1.7552388629689812,5.1819315135002135,3.228179956704378,0.0389643758535385,-0.2591976821422577,-0.2818399667739868,jumping
1761226620663045600,2.078710938633978,5.610308901751041,3.754911920723319,0.0627498254179954,-0.2692890167236328,-0.1999637335538864,jumping
1761226620673058600,2.6512653271511195,5.741220762252807,4.217910540500283,0.0605148933827877,-0.29907888174057,-0.1046633124351501,jumping
1761226620683071500,2.964667259700596,5.600122438779473,4.232808834424615,0.0946448743343353,-0.2608122229576111,-0.0014464932028204,jumping
1761226620693084700,2.948988044531643,5.389500497224927,3.5415701988160606,0.2101150155067443,-0.1858271956443786,0.0758504271507263,jumping
1761226620703097600,2.503257662680745,5.038185305866599,2.6542718154907226,0.4186266958713531,-0.2064142674207687,0.0946797430515289,jumping
1761226620713110800,2.0463506377771497,4.485949482756853,1.9581570982784031,0.6763085126876831,-0.3278866112232208,0.0509756691753864,jumping
1761226620723123500,1.51189538602978,3.851179168823361,1.4783973133146762,0.9278839826583862,-0.4873724579811096,-0.0348697453737258,jumping
1761226620733136600,1.0024716996863483,3.17787658739984,1.0124170473784209,1.1478219032287598,-0.7016549706459045,-0.1312524676322937,jumping
1761226620743149600,0.6612766280651092,2.533489134815335,0.5334264932215214,1.3207271099090576,-0.8250104188919067,-0.2264730036258697,jumping
1761226620753163500,0.3901303674429655,2.053927502772212,-0.3659416826039552,1.4833950996398926,-0.6434590220451355,-0.3063846230506897,jumping
1761226620763176700,-0.2813631187319755,1.8157038530647756,-1.8467092321813103,1.6235028505325315,-0.1937443763017654,-0.3364685177803039,jumping
1761226620773189600,-0.7872773356497287,1.4591104290425776,-3.426559087279439,1.7317625284194946,0.2127815634012222,-0.3975704908370971,jumping
1761226620783202600,-1.4136910323873162,0.8476198684096335,-4.320551123024523,1.853155374526977,0.4230604469776153,-0.5607671737670898,jumping
1761226620793215500,-2.583725284102559,-0.4207289193242788,-4.660630342358351,1.9504464864730835,0.3846342265605926,-0.8680815696716309,jumping
1761226620803228700,-3.9345699842154978,-2.6398931615263224,-4.638262443205714,1.962746262550354,0.4160209894180298,-1.1607065200805664,jumping
1761226620813241600,-4.504880977720022,-4.769409281507135,-4.909830144110321,1.824222207069397,0.9407026171684264,-1.2672611474990845,jumping
1761226620823254500,-3.561849601256847,-6.070923841261863,-6.172225576397776,1.541600227355957,2.0373101234436035,-1.031663179397583,jumping
1761226620833268700,-1.2544035567507148,-6.605128917640447,-7.192461773094535,1.1839708089828491,2.71030855178833,-0.4343174993991852,jumping
1761226620843281400,2.7579882105529308,-7.427687994551658,-6.460186193698644,0.9023882150650024,2.364267110824585,0.1778597980737686,jumping
1761226620853294600,4.986089792448282,-9.206771551227568,-4.092825194194913,0.7815659046173096,0.9068527221679688,0.6285923719406128,jumping
1761226620863307800,4.308633013954759,-11.195712494826315,-2.231567212179303,0.9771493673324584,-0.7808194160461426,0.7048660516738892,jumping
1761226620873320700,1.312466161879897,-12.60587622987032,-3.306304522131384,1.4341046810150146,-1.7291638851165771,0.3954597413539886,jumping
1761226620883333600,-2.6041964097231625,-12.391406965237856,-7.24172586247921,1.8316744565963743,-1.5088131427764893,-0.1144900768995285,jumping
1761226620893346600,-6.146663265118002,-10.357056854116916,-10.565311482018233,1.9804503917694087,-0.3154388964176178,-0.6353133320808411,jumping
1761226620903359700,-7.734629206654429,-7.731234888041019,-11.489140145361423,1.7713756561279297,1.2368193864822388,-0.9360350370407104,jumping
1761226620913372400,-6.687568715918064,-5.266873649987578,-9.532944118022918,1.1826921701431274,2.518857479095459,-0.9300980567932128,jumping
1761226620923386600,-3.6001448451206084,-3.069584554985165,-4.87005226047337,0.3516939878463745,3.479677200317383,-0.702290415763855,jumping
1761226620933399600,-0.3524596852183341,-1.1533452749818562,0.7413412216439843,-0.5332896113395691,4.030842304229736,-0.2740024328231811,jumping
1761226620943412500,2.320281414551288,0.6238859318256378,5.846942067396641,-1.361200928688049,3.877197980880737,0.2876962721347809,jumping
1761226620953425700,4.294497521096468,1.7629484144330023,10.444545752477644,-2.003859043121338,3.029001951217652,0.8022503852844238,jumping
1761226620963438600,5.21293338548541,1.6461182707756756,13.641252712553738,-2.322645664215088,1.7314871549606323,1.1044683456420898,jumping
1761226620973451500,5.108144392755627,0.9309013782083988,13.627473193526267,-2.3407859802246094,0.0616575293242931,1.0649632215499878,jumping
1761226620983464700,1.687117512901127,1.0718494795560836,11.538557964003086,-2.176342487335205,-1.604074239730835,0.7657454609870911,jumping
1761226620993477600,-1.067532054748386,0.6820119575798511,9.247623786097764,-1.937328815460205,-2.654456615447998,0.4140287041664123,jumping
1761226621003490600,-1.6683604977220297,-0.0065969140470027,6.573723725551367,-1.75085711479187,-3.009307861328125,0.1196768581867218,jumping
1761226621013503500,-2.306592934808135,0.3445470123976469,4.098582150286436,-1.6575998067855835,-2.944420099258423,-0.0358120650053024,jumping
1761226621023517700,-1.8738399618215855,0.9301502675801516,2.8011376164495942,-1.6705548763275146,-2.6788313388824463,-0.1036111041903495,jumping
1761226621033530600,-1.622540849702805,2.010006527981162,2.4692481333121656,-1.7601299285888672,-2.2325987815856934,-0.0332248248159885,jumping
1761226621043543600,-1.1648349295064806,2.7853356516838077,2.4839222630918023,-1.8648022413253784,-1.645629644393921,0.1132896393537521,jumping
1761226621053556700,-0.3913867972448468,3.064555913168192,2.442480245634913,-1.9520686864852903,-1.1111245155334473,0.1935194879770279,jumping
1761226621063569700,-0.5202582379601896,3.239569365724921,2.5782097355514764,-1.985895276069641,-0.8182234764099121,0.1937963664531707,jumping
1761226621073582600,-0.6634791065454483,3.07681216815114,2.8782968439757823,-1.89962375164032,-0.7168039083480835,0.1552977114915847,jumping
1761226621083595500,-0.6938336205378174,2.875247977799177,2.7876404214948414,-1.6872541904449463,-0.6008892059326172,0.1014984771609306,jumping
1761226621093608700,-0.7148004207208752,2.813943322008848,1.9999568431317805,-1.4175868034362793,-0.489209771156311,0.0412929318845272,jumping
1761226621103622700,-0.9610475101470948,3.0566730509638784,1.5312883610248564,-1.091598391532898,-0.5171033143997192,-0.0446332655847072,jumping
1761226621113635600,-1.4203937448963522,3.027491964665055,1.4713812970727682,-0.6767367720603943,-0.5819435715675354,-0.1928080767393112,jumping
1761226621123648800,-1.7731801778510212,2.835520947566628,1.1517986300617455,-0.2716890573501587,-0.5900723338127136,-0.3684592247009277,jumping
1761226621133661400,-1.6993182383045553,3.0463591622203587,0.8663912043750286,0.0338072031736373,-0.5806987881660461,-0.4910368323326111,jumping
1761226621143674600,-1.156018001322448,3.613774434283376,1.1660381678164005,0.2277361005544662,-0.4153966307640075,-0.5635251402854919,jumping
1761226621153687800,-0.3487660913974046,3.9896564961433407,1.466542040348053,0.2754852473735809,-0.0198149606585502,-0.605516254901886,jumping
1761226621163700500,0.2325342058941721,4.449324510192871,1.594988387519121,0.1715206801891327,0.4618203043937683,-0.5845138430595398,jumping
1761226621173713700,0.7974564920976758,5.068365340074896,2.094426686421037,0.0168906338512897,0.8340330123901367,-0.483296662569046,jumping
1761226621183726600,1.6239515932835638,5.294909073382616,2.773405559915304,-0.0620394423604011,0.9775850176811218,-0.376481145620346,jumping
1761226621193740500,2.090711611420661,5.182035558396578,3.116475485497713,0.0041707376949489,0.9286784529685974,-0.278533011674881,jumping
1761226621203753700,2.1503397123008967,4.792087561783195,2.89924493945837,0.1761644333600998,0.7275004982948303,-0.170666292309761,jumping
1761226621213766700,2.1622963998153804,4.298001729825139,2.352849074548483,0.4370173215866089,0.3786311745643616,-0.0945352986454963,jumping
1761226621223779600,1.8894930196359752,3.7614562278002497,1.636343311214447,0.7846846580505371,-0.0106493970379233,-0.0698586776852607,jumping
1761226621233792500,1.4235254670508206,3.0890497184336185,0.4892705406308174,1.18787682056427,-0.2969202995300293,-0.1211972311139106,jumping
1761226621243805700,0.7408939162679016,2.622486099651456,-0.8978034107267856,1.5610151290893557,-0.4356580078601837,-0.2207124233245849,jumping
1761226621253818600,-0.0118723702318966,2.158143664050102,-2.1234745017290115,1.825834035873413,-0.4493615627288818,-0.3491617441177368,jumping
1761226621263831600,-0.6590149667434394,1.5638246029704808,-2.8688495089337227,1.9941818714141848,-0.3506821393966675,-0.4750762283802032,jumping
1761226621273844500,-1.337829589586705,1.098479127806425,-3.543217966023087,2.097339391708374,0.0767698884010315,-0.5759064555168152,jumping
1761226621283858400,-1.861828767640889,0.6742828246325254,-4.744605095118284,2.1084234714508057,0.6957184076309204,-0.6090468168258667,jumping
1761226621293871600,-2.0650093071483075,0.5527227298438548,-5.76482550972402,2.045966386795044,1.1955393552780151,-0.559558629989624,jumping
1761226621303884500,-2.0718065660730005,-0.0671013593703508,-5.716200302764773,1.9752572774887085,1.5353676080703735,-0.4438969492912292,jumping
1761226621313897700,-1.4598426888398826,-1.4557394913047552,-5.302444145062566,1.867187261581421,1.7604824304580688,-0.2971706092357635,jumping
1761226621323910400,-0.4930763626545667,-2.961784105479717,-4.800538579264283,1.6987059116363523,1.715180516242981,-0.1074811443686485,jumping
1761226621333923600,0.8052259570553898,-5.007035549843312,-3.748327866157889,1.532854080200195,1.2344155311584473,0.1175527721643447,jumping
1761226621343936800,2.29062818069607,-7.649562567004561,-2.659884979197382,1.4320712089538574,0.3691532015800476,0.2466282844543457,jumping
1761226621353949400,2.337683215729147,-9.585635259246825,-2.2838971188753843,1.4511739015579224,-0.3652065396308899,0.2392119169235229,jumping
1761226621363962600,0.6557325840719044,-10.192178426605462,-3.405041959737241,1.5013976097106934,-0.8473395705223083,0.1751664727926254,jumping
1761226621373976600,-0.7419315887525677,-10.079066426688431,-5.085388955590129,1.520190954208374,-1.0108590126037598,-0.0484370477497577,jumping
1761226621383989500,-2.301596441695094,-10.055839864879848,-6.285049407023191,1.454436182975769,-0.657466471195221,-0.3315991759300232,jumping
1761226621394002700,-3.627850890430808,-9.675922848415372,-7.183616787859797,1.202564716339111,0.2547370195388794,-0.5649203062057495,jumping
1761226621404015600,-3.890865282523632,-8.760723481729626,-7.189377835604548,0.7139832377433777,1.4516186714172363,-0.6821404099464417,jumping
1761226621414028500,-3.04546922764331,-7.664048772996663,-5.736846200430393,0.0143124973401427,2.5631091594696045,-0.6533540487289429,jumping
1761226621424041500,-1.2127857443355023,-6.613723142984509,-2.805214656630158,-0.7101608514785767,3.392437696456909,-0.5621054768562317,jumping
1761226621434054700,0.3771801388464867,-5.473147333204746,0.4096934383079409,-1.3098206520080566,3.776280641555786,-0.3850036561489105,jumping
1761226621444067600,1.3605506860911845,-3.879991421809792,3.3591035076439377,-1.7229852676391602,3.6446070671081534,-0.0777952298521995,jumping
1761226621454080500,2.5052014902248976,-2.3944313772588965,5.979953530526161,-1.9486589431762693,2.844404458999634,0.281360000371933,jumping
1761226621464094700,3.3047800890430805,-1.5301725087374447,8.302169566401838,-1.946250915527344,1.510892391204834,0.4802100956439972,jumping
1761226621474107400,2.705245046880841,-1.3506886327683925,9.45994610182941,-1.771261215209961,-0.0143700540065765,0.476713627576828,jumping
1761226621484120600,1.4268211475953458,-1.214008710259199,9.12692703014016,-1.5215518474578855,-1.201086163520813,0.3108183443546295,jumping
1761226621494133500,-0.1333338269516825,-0.9261106368005276,7.697170121353865,-1.330712914466858,-1.892601490020752,0.0620721653103828,jumping
1761226621504146700,-1.4552049460366367,-0.48682256295681,6.17874591807723,-1.3266061544418335,-2.2494142055511475,-0.1877979338169098,jumping
1761226621514159600,-2.005331229646504,0.1777133591651916,5.567336021465063,-1.4763295650482178,-2.388906955718994,-0.4027621746063232,jumping
1761226621524172500,-1.9964025116510689,0.9468716852784156,5.600107825732231,-1.7321583032608032,-2.3720107078552246,-0.4512370526790619,jumping
1761226621534185700,-1.3857793815024195,1.9778794513583184,5.556507168936729,-1.9268252849578855,-2.086512804031372,-0.3435862362384796,jumping
1761226621544198400,-0.780314803160727,3.025129911708832,4.552905296176672,-1.958556652069092,-1.5638583898544312,-0.228893294930458,jumping
1761226621554212600,-0.5362636163435877,3.628274084278941,2.8653029223680493,-1.903522491455078,-1.120192527770996,-0.1813707798719406,jumping
1761226621564225800,-0.532087207441777,4.002977750009298,2.024001735585928,-1.7861300706863403,-0.9966285228729248,-0.1832204908132553,jumping
1761226621574238500,-0.4091154922895133,4.154549536702037,2.1052444330334663,-1.556543469429016,-1.0098103284835815,-0.2029316127300262,jumping
1761226621584251600,-0.1854224722377956,4.188584492772818,1.7613906635969876,-1.230539321899414,-0.8469574451446533,-0.1991115510463714,jumping
1761226621594264600,-0.0776318134739995,4.616812827941775,0.6975415351450442,-0.9071290493011476,-0.529503345489502,-0.1344065815210342,jumping
1761226621604277500,0.1023452528394758,5.28764697342515,0.1760796204835176,-0.6271334290504456,-0.2449961155653,-0.0276947114616632,jumping
1761226621614290400,0.209951202686131,5.813308677864074,0.58755146664083,-0.3434399664402008,-0.1129150465130806,0.088718444108963,jumping
1761226621624303600,0.0232382522463798,5.996114391732216,1.341211779370904,-0.0483669303357601,-0.0715312287211418,0.1224728822708129,jumping
1761226621634316800,-0.0544943912535905,5.887347727543116,1.8280039471894505,0.1585774719715118,-0.1428171247243881,0.1410545408725738,jumping
1761226621644330500,-0.0376429174348711,6.099439741650223,2.823015101736784,0.2379169315099716,-0.1352456957101822,0.1608224362134933,jumping
1761226621654343700,0.2776996277883649,6.10065905431211,3.7776352091848846,0.1603760570287704,0.0259293410927057,0.1811618059873581,jumping
1761226621664356400,0.4542319604754448,6.112756903862953,4.439869284105301,-0.0216225739568471,0.2519125342369079,0.217858225107193,jumping
1761226621674369500,0.640658349058777,6.30694676605463,4.97876339508295,-0.1982024013996124,0.3986881375312805,0.273218959569931,jumping
1761226621684382700,0.8199749056369066,6.228930629438161,5.1652369838088745,-0.2858164310455322,0.505467414855957,0.3215641975402832,jumping
1761226621694395600,1.0219514761820434,5.797227311635017,4.697711241996288,-0.3135841488838196,0.5066165924072266,0.3872486650943756,jumping
1761226621704408600,1.1345296614833176,5.407750439664722,4.0573277643561365,-0.2528417706489563,0.3982464373111725,0.4307910501956939,jumping
1761226621714421500,0.9810688461735844,4.892761520409584,3.3241876770853995,-0.1141587272286415,0.3020701110363006,0.3955185413360595,jumping
1761226621724434700,0.4358892251856625,3.920585298004746,2.1618892803192136,0.0276269111782312,0.268989235162735,0.2910924553871155,jumping
1761226621734448600,-0.1475140357345342,2.981768324366212,1.0891501584470271,0.1028771921992302,0.4134286940097809,0.1442106068134308,jumping
1761226621744461600,-0.8182846144624054,2.086622150149941,0.2372889992058277,0.1105700880289077,0.6718879342079163,0.027137205004692,jumping
1761226621754474800,-1.146990791388601,1.689249556493759,-0.4537660965293645,0.0741351172327995,0.9877864718437196,-0.0352247059345245,jumping
1761226621764487400,-1.1010539467304945,1.624632415154576,-0.9602800329059362,0.00989824347198,1.2911592721939087,-0.0559219233691692,jumping
1761226621774500600,-1.0338336371555925,1.6123159544169905,-1.231436230400205,-0.0136142736300826,1.5308018922805786,-0.0584548525512218,jumping
1761226621784513500,-0.8967832738988101,1.0857850659281014,-1.4644564662456512,-0.03349344804883,1.9037271738052368,-0.0980290994048118,jumping
1761226621794526500,-1.291845837046951,0.1734925265997648,-1.952854900217056,-0.1535876393318176,2.1636013984680176,-0.1396564543247223,jumping
1761226621804539600,-2.017942727807909,-0.3996545671135187,-1.916030021166801,-0.2808758020401001,2.1342782974243164,-0.1707068085670471,jumping
1761226621814552600,-2.079798880001157,-1.12030926682055,-2.2818793493121863,-0.2818745076656341,2.1685147285461426,-0.1550932228565216,jumping
1761226621824565800,-1.292317107820511,-2.570478264516592,-4.0604514493346215,-0.1497719287872314,2.130431890487671,-0.3530703485012054,jumping
1761226621834579500,-1.1444858958955852,-3.642571489700675,-5.591055919748545,0.1329569816589355,2.491306781768799,-0.588209331035614,jumping
1761226621844592600,-2.1009858988061545,-3.648233753246069,-6.71353668538928,0.3754874765872955,2.8725180625915527,-0.4909594357013702,jumping
1761226621854605600,-0.1155206867602653,-5.467762717556953,-6.75570467903316,0.3887116909027099,2.307793140411377,-0.2053263634443283,jumping
1761226621864618500,2.314434149827808,-8.077950476649404,-4.638179441097378,0.2422227263450622,1.4817407131195068,-0.0100449379533529,jumping
1761226621874631700,3.0956457556977868,-9.815642284750938,-3.656480188065767,0.1096902564167976,1.1210427284240725,0.0278188213706016,jumping
1761226621884644600,2.525214058423042,-10.164162292432785,-5.373831803449988,0.1461949050426483,1.1804282665252686,0.0164516605436801,jumping
1761226621894657500,1.4721597340993582,-9.285060075044631,-7.736188711056113,0.3582938611507416,1.2697651386260986,0.0513822138309478,jumping
1761226621904670500,1.2080432990487664,-8.426253042188286,-8.31906341805756,0.5659247040748596,1.0393297672271729,0.1129148229956626,jumping
1761226621914683600,1.5381230293504893,-8.798262646529079,-7.208724925631285,0.5648743510246277,0.6450477242469788,0.1081443056464195,jumping
1761226621924697600,1.4552663208350538,-9.888339272171258,-5.37343608213067,0.3339826464653015,0.4509389996528625,0.0083487872034311,jumping
1761226621934710500,1.0397385503504424,-10.497419264531135,-3.920265564531088,-0.0085696429014205,0.6220263242721558,-0.0843004509806633,jumping
1761226621944723700,0.6780488991677761,-10.2232177079916,-3.290916691124439,-0.3465903699398041,0.9662922620773317,-0.1214905157685279,jumping
1761226621954736400,0.5729707142330706,-9.457900859737396,-2.734890243560076,-0.6174015998840332,1.33140766620636,-0.1401134729385376,jumping
1761226621964749600,0.7052990174040198,-8.97675926502645,-1.948869629973173,-0.8752321004867554,1.3490023612976074,-0.077079638838768,jumping
1761226621974762800,2.180525153336674,-8.244532785469293,-0.6834241624653339,-1.1037449836730957,0.845454752445221,-0.0141115961596369,jumping
1761226621984775400,2.026652834616601,-8.155280969089269,1.159201599794626,-1.2260314226150513,0.3826030492782593,-0.117068812251091,jumping
1761226621994788600,1.1707992447383702,-8.48087310564816,1.791677665311098,-1.3056596517562866,-0.0854408293962478,-0.258006751537323,jumping
1761226622004801500,1.2515306316629051,-8.018829594638943,1.7552046684384346,-1.2748067378997805,-0.6475420594215393,-0.3440005481243133,jumping
1761226622014815500,1.1593347246550023,-7.170851414310932,1.9716215600073337,-1.1065367460250854,-0.8924311995506287,-0.4532735347747803,jumping
1761226622024828700,0.7034583579733967,-6.038104106199741,0.9538935467392206,-0.7863425612449646,-0.7851765155792236,-0.4737361073493957,jumping
1761226622034841600,0.0973752824071794,-4.4705309643507,-0.329399127626419,-0.5601323246955872,-0.5457426309585571,-0.4721712172031402,jumping
1761226622044854500,-0.3959685720771551,-2.480101828020811,-0.0029342998862266,-0.5967313051223755,-0.3896690309047699,-0.4772587418556213,jumping
1761226622054867500,-0.5519032301545143,-0.9390782549232244,1.9222142627596852,-0.8389567136764526,-0.317596435546875,-0.4868107140064239,jumping
1761226622064880600,-0.4201241583641618,0.3378156583160162,3.798988378337025,-1.124463677406311,-0.216815561056137,-0.4991218447685241,jumping
1761226622074893600,-0.4352265965584665,1.60319682841599,4.509297040596604,-1.2918840646743774,-0.0297322161495685,-0.4848358631134033,jumping
1761226622084906500,-0.5272287710925564,2.9525802238047123,3.990357337889075,-1.2758142948150637,0.1797688156366348,-0.4114614129066467,jumping
1761226622094919700,-0.5987361468695104,4.056022526976466,2.9692993034154176,-1.0743037462234497,0.3962308168411255,-0.3397859036922455,jumping
1761226622104933400,-0.8579434748295695,4.753659339189529,2.1077152070611715,-0.7655119299888611,0.4937441349029541,-0.2971132099628448,jumping
1761226622114946600,-1.205127557732537,5.376147679176927,2.021246299397945,-0.4234054386615753,0.5227885842323303,-0.2564717829227447,jumping
1761226622124959500,-1.2413973601832986,5.687714797514677,2.4267881709843877,-0.0352970138192176,0.4756118953227997,-0.2914082705974579,jumping
1761226622134972700,-1.4056097250014543,5.788403369188308,3.174592743423581,0.3332535922527313,0.3006560504436493,-0.3484294712543487,jumping
1761226622144985600,-1.9284031805276869,6.0830351348161695,4.00179993840158,0.6467481851577759,0.4874925911426544,-0.6734751462936401,jumping
1761226622154998500,-3.6465424391582606,5.64955077881515,3.824221019271016,0.7705614566802979,0.439104288816452,-1.3146511316299438,jumping
1761226622165011700,-9.34105259590149,2.0373422786742448,3.295004837220907,0.7403773665428162,0.8068886399269104,-1.72974956035614,jumping
1761226622175024400,-7.392988437092304,3.331317090573907,4.319207014939189,0.6153083443641663,1.2510207891464231,-1.59368097782135,jumping
1761226622185037600,-4.069213432461023,6.6029860603928565,3.664654142171144,0.366358071565628,1.4658483266830444,-0.8656559586524963,jumping
1761226622195050500,-1.172143206693232,9.43581119300425,4.734147413989901,0.16962930560112,1.2259424924850464,-0.3805713355541229,jumping
1761226622205064400,-0.2620874865062534,9.157513307061793,6.598295856750011,0.1741217970848083,0.8504692316055298,-0.1859773695468902,jumping
1761226622215078000,-1.1032730840846896,7.74533297149837,7.400450443536043,0.1663941144943237,0.3655917644500732,-0.0563969984650611,jumping
1761226622225091000,-1.1133039181031286,7.393487034264206,6.683574677845836,0.2133563905954361,0.0856577455997467,0.1230544447898864,jumping
1761226622235103700,-0.645834728783369,6.759593503165244,5.34061225541532,0.4435831904411316,-0.4971800744533539,0.072851724922657,jumping
1761226622245117000,-1.5854297010570764,5.777284009280801,4.960290749803185,0.6018227934837341,-1.1548787355422974,-0.156207725405693,jumping
1761226622255130000,-3.280343859183788,4.885094931304455,5.109795667093992,0.6616981029510498,-1.7360358238220217,-0.3408372402191162,jumping
1761226622265143000,-4.21202265150547,4.948115743362903,4.875566055458783,0.7829948663711548,-2.128179788589477,-0.4615308940410614,jumping
1761226622275156000,-4.215759499946237,5.372590278956293,4.16200335983932,0.9549349546432496,-2.380076169967652,-0.5073463320732117,jumping
1761226622285169000,-3.413014838312566,5.847807159793376,3.323125600811839,1.114025592803955,-2.57702112197876,-0.4455691576004028,jumping
1761226622295182800,-2.071631794027984,6.136847973546385,3.0846833399176594,1.236943244934082,-2.7388741970062256,-0.3772883713245392,jumping
1761226622305196000,-0.7363669403627514,6.359677654767036,3.0798247939705847,1.2706302404403689,-2.8070783615112305,-0.3647711277008056,jumping
1761226622315209000,0.2881292518660426,6.221656254521012,2.598378663355112,1.1923199892044067,-2.8286919593811035,-0.3984675705432892,jumping
1761226622325222000,1.2503149722628295,5.391725187537074,2.348725272616744,0.9801124930381776,-2.8380284309387207,-0.3343319594860077,jumping
1761226622335234800,2.367614535873383,4.479306391480565,2.615405786001682,0.6426021456718445,-2.776838541030884,-0.0980789512395858,jumping
1761226622345248000,3.629977381065488,4.304702688768506,3.018017449355125,0.1295935809612274,-2.310551643371582,0.1711665838956833,jumping
1761226622355261000,3.8559149651736018,4.480026522448659,2.8704513911724088,-0.5930956602096558,-1.3469595909118652,0.3262925148010254,jumping
1761226622365273900,3.0671082279995083,4.250234600999951,2.428752164533734,-1.4041221141815186,0.1837119162082672,0.3145080506801605,jumping
1761226622375287000,1.709521506280452,3.148568075329065,2.197221874985099,-2.397146224975586,0.5661748647689819,0.1553221195936203,jumping
1761226622385301000,-1.0207890813391656,0.2518231359928846,-0.1320002402603626,-3.559924602508545,-0.2507337629795074,-0.2076158225536346,jumping
1761226622395314000,-0.4507034575557336,-2.53683669167757,4.950931385305523,-4.388687610626221,-1.961250066757202,-0.4596664309501648,jumping
1761226622405326800,-1.1732082786414773,-4.484287687024474,3.1094658989965915,-4.515144348144531,-2.6765973567962646,-0.4056449830532074,jumping
1761226622415340000,-1.84109241521284,-4.312110334676504,-0.9204542184740304,-3.846170902252197,-2.41949725151062,-0.1024078950285911,jumping
1761226622425353000,-2.10296728188172,-3.7697242899298655,-7.9843989172488445,-2.4363932609558105,-1.5147899389266968,0.2756154835224151,jumping
1761226622435366000,-1.0480597309067845,-3.048285161846876,-14.593926362109183,-0.8129090666770935,-0.2840979099273681,0.3737111687660217,jumping
1761226622445379000,-0.2771272164615802,-1.948450527778268,-18.15032120509148,0.3529925644397735,0.655404806137085,0.1804455667734146,jumping
1761226622455392000,-0.6041632134195417,-0.9134861330270768,-16.60021357730627,0.537175714969635,0.7231149077415466,-0.0029450324364006,jumping
1761226622465405000,-1.190247603182495,-0.7233551908373832,-11.168983477854727,0.0956461653113365,0.383403480052948,0.0613690167665481,jumping
1761226622475417900,-0.829299564147368,-1.398786600983143,-6.327448286813497,-0.4250886440277099,0.1525716036558151,0.2183248102664947,jumping
1761226622485431800,-0.2021146090426482,-3.115061527046561,-5.979771159696579,-0.714148759841919,-0.1455955952405929,0.3055309355258941,jumping
1761226622495445000,-0.0985134378579445,-4.930259184154868,-7.122977317979932,-0.6544255018234253,-0.4665674865245819,0.2521601319313049,jumping
1761226622505458000,-0.5685079992031679,-5.8036903701692815,-8.47632026464939,-0.2795039415359497,-0.3597976565361023,0.1005348116159439,jumping
1761226622515471000,-1.1676472104482352,-5.616304927295446,-9.98884079684019,0.1767568290233612,-0.0271837562322616,-0.0964962244033813,jumping
1761226622525483800,-1.7737128234229982,-5.938930030742287,-10.154124882543089,0.4960134029388428,0.148522064089775,-0.2395155727863311,jumping
1761226622535497000,-2.092764890688658,-6.597340747982263,-8.243015366643666,0.5546567440032959,0.193937212228775,-0.3202471733093261,jumping
1761226622545510100,-2.029324245782941,-6.975629286462068,-5.71872368376255,0.3745850324630737,0.2137939631938934,-0.3749811053276062,jumping
1761226622555522800,-1.7946565349914132,-6.814356189966201,-3.61354296361506,0.0844514816999435,0.2794861495494842,-0.3797796070575714,jumping
1761226622565536000,-1.2958803532600405,-5.739078489527106,-2.4030150812089444,-0.1822399348020553,0.4778781831264496,-0.3127479553222656,jumping
1761226622575549000,-0.8600200619079172,-4.091162229418754,-1.9429647898435591,-0.3912661075592041,0.7550455927848816,-0.1936505883932113,jumping
1761226622585563000,-0.571459469419904,-2.602462717798352,-1.6732190436691046,-0.5792032480239868,1.000927448272705,-0.0625950172543525,jumping
1761226622595576000,-0.1434154595755971,-2.277683651188016,-1.1764578550219535,-0.7454097867012024,1.2885419130325315,0.1248622238636016,jumping
1761226622605589000,0.7729314149111509,-2.4340648839890955,-0.6213537829995155,-0.897452175617218,1.586606740951538,0.3294479250907898,jumping
1761226622615602000,1.5349533132731914,-2.094704918840528,-0.2290975094437599,-1.0290358066558838,1.6203923225402832,0.4446698427200317,jumping
1761226622625614800,1.7398123073868452,-1.4276111289292572,0.4602420145452022,-1.1008684635162354,1.358274221420288,0.4313040971755981,jumping
1761226622635628000,1.5357196214705704,-0.6723129858642816,1.0411112269431353,-1.0391910076141355,1.0476497411727903,0.3623268902301788,jumping
1761226622645641000,1.5530103634893893,0.4486164586812257,0.8318938914895058,-0.8616172075271606,0.7767673134803772,0.3024354577064514,jumping
1761226622655654000,1.6212018561840056,1.5622984163165092,0.3875473652124405,-0.5964851379394531,0.474102258682251,0.2522852122783661,jumping
1761226622665667000,1.337657447890192,2.122482568082213,0.352142874354124,-0.2826856672763824,0.1865277290344238,0.1958577036857605,jumping
1761226622675680800,0.772665311320871,2.2591186514496804,0.5982908873200417,0.0868103578686714,-0.057651113718748,0.1383858770132064,jumping
1761226622685694000,0.2534106974452734,2.4240759894162416,0.9497995554238556,0.4670885801315307,-0.2803947627544403,0.0800443291664123,jumping
1761226622695707000,-0.0419936965228989,2.887591911065578,1.4422393737405537,0.86225825548172,-0.4361715912818908,0.065524511039257,jumping
1761226622705720000,-0.0653874315919354,3.5081384693354365,2.026538560587168,1.2053712606430054,-0.4998281002044678,0.0963905900716781,jumping
1761226622715733000,0.1132184924988076,4.047731668493151,2.632709387502074,1.4020174741744995,-0.5343794226646423,0.160245731472969,jumping
1761226622725746000,0.1609689259175211,4.166133591511845,3.684646544364095,1.4534947872161863,-0.5156369805335999,0.2502483129501343,jumping
1761226622735759000,0.153685015987046,4.1264480623334645,4.743203411626816,1.4157321453094482,-0.4653998911380768,0.3471212983131408,jumping
1761226622745771800,-0.0213525298313237,4.113205718922615,5.391124883556365,1.3921440839767456,-0.3601387441158294,0.4405747950077057,jumping
1761226622755785000,-0.2259340769767761,4.316640379321575,5.820315341755747,1.4416680335998535,0.0248797629028558,0.5076841115951538,jumping
1761226622765798000,-0.5278177864942699,4.602111517894268,5.550319420212507,1.503250241279602,0.3725110590457916,0.496743768453598,jumping
1761226622775811800,-0.991407577097416,4.774947626411914,5.11528198955059,1.3801528215408323,0.4156627953052521,0.4184468388557434,jumping
1761226622785825000,-1.2475608512490988,4.854578797009587,6.23865122846365,1.0747002363204956,0.2285725623369217,0.3714309632778168,jumping
1761226622795838000,-1.0079673744931816,5.148135042360424,7.132624851769209,0.7393924593925476,-0.0283543057739734,0.3484468162059784,jumping
1761226622805851000,-0.4713344864457845,5.489991500499844,7.341097506335378,0.5133285522460938,-0.1429723054170608,0.2768484652042389,jumping
1761226622815863800,-0.2344277645558118,5.466963091611862,6.515301931720972,0.4708745777606964,-0.203410342335701,0.1386120617389679,jumping
1761226622825877000,-0.3757423976609483,5.17973721832633,5.428346652969718,0.5785000920295715,-0.3181324601173401,-0.0151321087032556,jumping
1761226622835890200,-0.5483790746163576,4.881851419338584,4.638377594017983,0.7681310176849365,-0.3832384943962097,-0.0736020803451538,jumping
