timestamp,acc_x,acc_y,acc_z,gyr_x,gyr_y,gyr_z,activity
1761226663547513600,0.143804623289965,0.2820341498613357,0.6823036340028047,-0.0139878820627927,-0.0360755920410156,-0.0939961969852447,jumping
1761226663557526800,-0.2964989842718467,0.2433984219968318,0.771896226644516,-0.0461135953664779,0.0223672632128,-0.1177443787455558,jumping
1761226663567539700,-1.1632505829244852,0.2262035415679216,0.5128232656538486,-0.0425444245338439,0.0535100027918815,-0.0947168171405792,jumping
1761226663577553000,-1.2724078538663686,0.2541787592083215,0.2029524298399686,-0.0091737741604447,0.1057247519493103,-0.1203044652938842,jumping
1761226663587565600,-0.9707023504599928,0.1851578299522399,0.0144879595577716,0.0653531923890113,0.1388752609491348,-0.1265956461429596,jumping
1761226663597578800,-0.7907860013578086,0.3832984755963087,-0.2027051770806312,0.1487776786088943,0.1175439804792404,-0.115080215036869,jumping
1761226663607592000,-0.7598464540190994,0.4277402593910694,-0.0938753845274448,0.1936876326799392,0.0643105953931808,-0.0505177341401577,jumping
1761226663617604600,-0.4173843581367283,0.0026771102547645,0.1509755743652582,0.1832570135593414,0.0314486324787139,0.0370218902826309,jumping
1761226663627617800,0.2020272778190672,-0.3230027045875787,0.2653098095536232,0.1471903473138809,-0.0769454836845398,0.0668266490101814,jumping
1761226663637630700,0.1083763862298801,-0.5401414806902408,0.4210340397506952,0.1195344924926757,-0.1258469820022583,0.1124387606978416,jumping
1761226663647644000,-0.2932206567209214,0.1749503241926431,0.3001876461893319,0.1261750906705856,-0.0740013495087623,0.1260054409503936,jumping
1761226663657656600,0.7180694324541836,0.6620996348857879,0.1667465594708919,0.1833749115467071,-0.1362698227167129,0.1485048681497573,jumping
1761226663667669800,0.4379707441674545,-0.4267161770403385,0.1291606329202652,0.3153305351734161,-0.216085284948349,0.2503092586994171,jumping
1761226663677683000,0.4954267982382327,-0.8153168506979942,-0.1837964784711599,0.4900451600551605,-0.1649094671010971,0.3743201494216919,jumping
1761226663687695600,0.4015650038447231,-0.4769610941559076,-0.672058718842268,0.5756250619888306,-0.180418387055397,0.437932938337326,jumping
1761226663697708800,0.1264491637381725,0.0445300466001033,-0.2453723524183034,0.4818228483200073,-0.3028534352779388,0.41792893409729,jumping
1761226663707721700,-0.4043465973872691,-0.0506090742528438,0.6769914990693331,0.3500677347183227,-0.4397843778133392,0.3801741003990173,jumping
1761226663717735000,-0.8447266311861574,0.0696633188128471,0.9229846137344836,0.1833392232656479,-0.5565994381904602,0.2590596079826355,jumping
1761226663727747600,-1.314551735982299,0.7690402526915073,1.1513058781087395,0.0126564232632517,-0.6080644726753235,0.0910325199365615,jumping
1761226663737760800,-1.4341183188661932,0.639260611090064,1.2161784555137156,-0.129416212439537,-0.5404019355773926,-0.0578795336186885,jumping
1761226663747774000,-1.121615819374472,0.4409779266268014,1.035827733582258,-0.2521644830703735,-0.4398974776268005,-0.168252632021904,jumping
1761226663757786600,-0.798544798791036,0.2334235559493303,0.9338350935727358,-0.3582437932491302,-0.3458914458751678,-0.2124556899070739,jumping
1761226663767799800,-0.4937982837209477,0.0124023854553699,1.0365607240319252,-0.4289541840553283,-0.2696541845798492,-0.1838333755731582,jumping
1761226663777812700,-0.1926306865835562,-0.3165267865717411,0.9448352110147475,-0.4934583306312561,-0.1537315398454666,-0.089294210076332,jumping
1761226663787826000,0.0567265981519129,-0.5107137261539697,0.8889385517477989,-0.6395255327224731,-0.0668147653341293,-0.0018194881267845,jumping
1761226663797838600,-0.1236262061387766,-0.3651064008235931,1.260951078698039,-0.8102702498435974,-0.0160251073539257,-0.0076355757191777,jumping
1761226663807851800,-0.9168352973245084,-0.5093097045749425,1.274907123336196,-0.908997356891632,0.0549755655229091,0.0069268550723791,jumping
1761226663817864700,-0.9811365776475518,-0.5147217927515506,0.6949971113592386,-0.9556638598442078,0.1314668655395507,0.0394118167459964,jumping
1761226663827877600,-0.1254332920933608,-0.0640419717997312,-0.0024713585495948,-1.018467664718628,0.2348145544528961,0.0948575064539909,jumping
1761226663837890800,0.5422266894664615,0.1958288615703582,0.0630266572773456,-1.130226492881775,0.3401682376861572,0.1603414863348007,jumping
1761226663847903700,0.7970048758726567,0.1998661542624235,0.3462584924906492,-1.2612242698669434,0.399694949388504,0.2345736473798751,jumping
1761226663857917000,0.8422009851660579,0.0284065947949886,0.6138280636698007,-1.3659145832061768,0.4081980884075165,0.3121064603328705,jumping
1761226663867929600,0.9159771461252124,-0.1003998178601264,0.7603887442022561,-1.3650285005569458,0.3983180224895477,0.3717149496078491,jumping
1761226663877943800,0.6486540239877998,-0.2337397822916507,-0.0534375756770372,-1.2343745231628418,0.4728395640850067,0.4008834362030029,jumping
1761226663887956700,0.2160225584890693,-0.2205646588981151,-0.9243559020876884,-1.0298619270324707,0.5991501212120056,0.3907269537448883,jumping
1761226663897969700,-0.0189497704053763,-0.0523854362756013,-1.5604793841958045,-0.7775482535362244,0.6276001930236816,0.2556426525115967,jumping
1761226663907982800,-0.7987171596832573,-0.299111541390419,-1.776384234589338,-0.4979962706565857,0.5783810019493103,0.0709372609853744,jumping
1761226663917995800,-1.3777211627312005,-0.6905974150955677,-1.7614602217018602,-0.2105851918458938,0.4192422926425934,-0.1045900285243988,jumping
1761226663928008700,-1.0467267287373545,-0.6666805329352616,-1.8167969089984888,0.0715865865349769,0.2568155825138092,-0.2386322617530822,jumping
1761226663938021600,-0.7702625610280781,-0.5684615662455559,-1.8779577724039556,0.3109981715679168,0.1648399829864502,-0.3597674071788788,jumping
1761226663948034800,-0.7720525131847709,-0.2127197906166315,-1.77630590865612,0.4784212708473205,0.1107179000973701,-0.4571687877178192,jumping
1761226663958047700,-0.8636552035398781,0.1883931586116552,-1.3286784610122442,0.5978214740753174,0.0950753912329673,-0.500612735748291,jumping
1761226663968060700,-0.6818082517012953,0.4340981039851904,-0.9763900407075882,0.6646484136581421,0.1078769415616989,-0.4975245594978332,jumping
1761226663978073900,-0.3780605749428272,0.5803033952087163,-0.7136994737416505,0.6844640970230103,0.1350974887609481,-0.4632638394832611,jumping
1761226663988086800,-0.1513337401531636,0.6862380508422851,-0.3273024476081133,0.6651119589805603,0.1497991979122162,-0.4155421257019043,jumping
1761226663998099700,-0.0621105288131162,0.8108265535414219,0.0369178180307149,0.6093224883079529,0.143410712480545,-0.353868305683136,jumping
1761226664008112600,-2.8495442122e-06,0.8431488604754209,0.3887701850056648,0.5203374624252319,0.1466121077537536,-0.2884437441825866,jumping
1761226664018125800,0.0297077039888128,0.6786287448823451,0.6834113029837608,0.4115494787693023,0.1366074979305267,-0.2223159670829773,jumping
1761226664028138800,0.1259307110883295,0.4741133035093545,1.0463748465597629,0.3094529509544372,0.0885630175471305,-0.1404836773872375,jumping
1761226664038151700,0.4210430633073672,0.2951993363827467,1.2196119370937346,0.2560658752918243,-0.0172528959810733,-0.0546747632324695,jumping
1761226664048164900,0.5114469723319635,0.3682493750244379,1.1003355693280696,0.2968452572822571,-0.1113394424319267,0.0174353830516338,jumping
1761226664058177800,0.469839535180293,0.6369739614576101,0.6443740085810422,0.4368459582328796,-0.1857917755842209,0.0767304375767707,jumping
1761226664068190700,0.433781548849307,0.8641156606584787,0.0739437726110219,0.6376699209213257,-0.2668924629688263,0.1204728558659553,jumping
1761226664078203600,0.3598654679628089,0.9959966584533452,-0.2458703650683164,0.8412163853645325,-0.3576641082763672,0.1384247541427612,jumping
1761226664088216800,0.2157487099837511,0.9492389989316464,-0.3181143480241298,1.0361844301223757,-0.4220963418483734,0.1344955265522003,jumping
1761226664098229800,-0.0165759448129683,0.9523340423375368,-0.3288403246998786,1.2430543899536133,-0.4415001273155212,0.1112629026174545,jumping
1761226664108242700,-0.2208636783773079,1.133897647190094,-0.4778121580272912,1.4539508819580078,-0.4434429109096527,0.0754780024290084,jumping
1761226664118255900,-0.2236148402489721,1.4085691593289371,-0.4149363073974847,1.695043683052063,-0.4857926666736603,0.0344727002084255,jumping
1761226664128268800,-0.1165195433381944,1.7328174800634384,-0.3342290320008993,1.9493722915649412,-0.5619454979896545,0.0181896016001701,jumping
1761226664138281700,-0.0709057200893759,2.076887522599101,-0.5064706817567348,2.1904826164245605,-0.6280008554458618,0.0121173858642578,jumping
1761226664148294700,0.001783120557107,2.4604829353153703,-0.5724035818696022,2.374027967453003,-0.6569448709487915,-0.0230643022805452,jumping
1761226664158307800,-0.1389757052961736,2.853716529470682,-0.3183540019989013,2.480670928955078,-0.6615095734596252,-0.0437094345688819,jumping
1761226664168320800,-0.1483822334038093,3.085081983846426,0.2303355268061161,2.5063772201538086,-0.6831674575805664,-0.0333611890673637,jumping
1761226664178333700,0.1782546629676595,3.1393361366033554,0.908703574925661,2.4983508586883545,-0.725267767906189,0.0098723117262125,jumping
1761226664188347000,0.4647465594228356,3.178248343321681,1.339645260706544,2.48167085647583,-0.8226982355117798,0.0415700525045394,jumping
1761226664198359800,0.3675482410177588,3.203138454428315,1.7676894714802502,2.448840379714966,-0.971510648727417,0.0139788668602705,jumping
1761226664208372700,-0.0577497215214185,3.655525079298019,2.085977422505617,2.346717834472656,-0.8957740664482117,-0.0078233676031231,jumping
1761226664218385700,-0.23222225386817,4.174557136464118,2.285290619060397,2.128119707107544,-0.7747201323509216,0.0482325740158557,jumping
1761226664228398800,0.0288688237455673,4.235488282766938,2.9054323959216477,1.7786400318145752,-0.7501891851425171,0.1658526808023452,jumping
1761226664238411800,0.6439337174676358,4.303393944257498,3.778961781613528,1.3473466634750366,-0.9425553679466248,0.289980411529541,jumping
1761226664248422700,0.9251503404010086,4.802894202479719,4.549517991825938,0.9488821029663086,-1.1263675689697266,0.3786109387874603,jumping
1761226664258435600,0.6328991132341325,5.399430939608812,4.404148859165609,0.6372309923171997,-1.0754289627075195,0.4346235990524292,jumping
1761226664268448500,0.2180930080875754,5.51922460924685,3.428463459596037,0.4217879176139831,-0.8459572196006775,0.4641284942626953,jumping
1761226664278461400,-0.0895135360561311,5.291034277775883,2.2709674946755167,0.2814341783523559,-0.6573025584220886,0.4194009602069855,jumping
1761226664288474600,-0.5149619947155937,4.886992873880267,1.3477917422831058,0.2165507823228836,-0.6238428354263306,0.2725284397602081,jumping
1761226664298487600,-1.2959088487021624,4.491259279602766,0.5146639250844717,0.2366392761468887,-0.5683487057685852,0.0840562656521797,jumping
1761226664308501500,-1.8134160343885424,3.66893225788176,-0.5212655153065919,0.3713051974773407,-0.354215919971466,-0.1262080073356628,jumping
1761226664318514700,-2.110692323175817,2.6468355280101297,-1.777242312723398,0.6186959743499756,0.0401707887649536,-0.344546228647232,jumping
1761226664328527400,-2.258199929169565,1.993240102097392,-2.897357518276572,0.8578635454177856,0.533130943775177,-0.5513476133346558,jumping
1761226664338540500,-2.0156297746904195,1.3437041807085277,-3.423877008588612,0.9685999155044556,0.9047794342041016,-0.6669339537620544,jumping
1761226664348553500,-1.277140873737633,0.2101817965716123,-2.9260306550532578,0.9154834747314452,1.0930005311965942,-0.6831813454627991,jumping
1761226664358566400,0.1140989651277661,-1.116152731662989,-1.7791259345129131,0.6765396595001221,0.9963647723197936,-0.6515212655067444,jumping
1761226664368579600,1.31921695131436,-2.2151152590721845,-0.0938330066904425,0.3433380126953125,0.5924742817878723,-0.5540868639945984,jumping
1761226664378592500,2.4269591436371205,-3.214209299018979,1.4753773809716104,0.0603136010468006,0.0717580616474151,-0.3688110411167145,jumping
1761226664388605700,3.5517315273463725,-4.098731203368306,2.140034591385722,-0.1991278231143951,-0.6469950079917908,-0.2129958868026733,jumping
1761226664398618400,3.3728666600584982,-4.616800552982092,2.306654309606552,-0.3970983624458313,-1.5156702995300293,-0.0986082553863525,jumping
1761226664408631600,2.3607015416145325,-5.13747745474577,1.9031047808811068,-0.4984137713909149,-2.128561496734619,-0.0203115809708833,jumping
1761226664418644500,1.5231404181435704,-6.092465810984373,-0.0021007716715335,-0.5175708532333374,-2.253551721572876,-0.0535026267170906,jumping
1761226664428657400,0.5489145697325468,-6.767843445116281,-2.537031629727781,-0.5347719192504883,-1.8792076110839844,-0.0651576891541481,jumping
1761226664438670600,-0.4536746553862467,-6.9195672075003385,-4.791804945449531,-0.6456854939460754,-1.0448391437530518,-0.0407991036772728,jumping
1761226664448683500,-0.7768715308390557,-7.202346622771024,-6.138570559555292,-0.8742923140525818,0.1111555248498916,0.0851926580071449,jumping
1761226664458696700,0.0002296805700287,-7.725086886805295,-6.473841794085502,-1.2429890632629397,1.2207518815994265,0.2251951098442077,jumping
1761226664468709400,0.947032574928552,-8.006549374258517,-5.071445185911655,-1.7357282638549805,2.168121576309204,0.4394189715385437,jumping
1761226664478722600,2.262984533097595,-7.802299890345335,-2.363983632025122,-2.4429478645324707,2.3132731914520264,0.7831997275352478,jumping
1761226664488735500,4.206861323219537,-7.317352473610639,2.1201906577527523,-3.1528658866882324,1.4507375955581665,1.09855318069458,jumping
1761226664498748400,5.050599966281652,-7.335421798786521,6.188039816123247,-3.4516761302948,-0.1149851232767105,1.2078485488891602,jumping
1761226664508761300,3.409151733143628,-7.191868483376503,6.51853024611771,-3.11014723777771,-1.477561354637146,1.1206302642822266,jumping
1761226664518774500,1.57921696402207,-7.304758364975452,2.229028049090505,-2.342454195022583,-2.3774843215942383,0.9791306853294371,jumping
1761226664528787700,-0.0140596511431038,-6.059501699015498,-2.5939824742227797,-1.4831299781799316,-2.674969434738159,0.9436491131782532,jumping
1761226664538800400,-0.9183389068204908,-3.8223844514936207,-5.158485755982995,-0.7221447229385376,-2.459476947784424,1.0122395753860474,jumping
1761226664548813600,-0.9834363059572876,-1.7705314169079065,-5.892825282171368,-0.1993643045425415,-2.1584150791168213,1.138560771942139,jumping
1761226664558826500,-0.8933920240253209,0.0864350053936243,-4.855932549706101,0.0410813130438327,-2.036317825317383,1.3893671035766602,jumping
1761226664568839400,-0.4519812589392066,1.0104846180111169,-2.426996260777116,0.0785013884305954,-2.0196073055267334,1.6161177158355713,jumping
1761226664578852400,-0.1864880556426942,1.5460773493558166,-0.1907727472245693,-0.0532355979084968,-2.1436686515808105,1.7724006175994873,jumping
1761226664588865500,0.1020259577572345,1.7502309716790914,1.5549924772173165,-0.2843495011329651,-2.3976707458496094,1.7990738153457642,jumping
1761226664598878700,-0.1752718112319707,1.4019897809386253,2.6703181104063987,-0.4690645039081573,-2.481805324554444,1.6320087909698486,jumping
1761226664608891400,-1.433598386645317,0.6719447370737791,2.0438456692188978,-0.5544846057891846,-2.365356206893921,1.2834185361862185,jumping
1761226664618904600,-2.860637560905516,-0.1461006618052721,0.4391472040683031,-0.5064048767089844,-1.9197847843170168,0.8283594250679016,jumping
1761226664628917500,-4.151760490505397,-0.0956838952541351,-0.9006541239827871,-0.4161886870861053,-1.440160632133484,0.4013670980930328,jumping
1761226664638930400,-4.5129459184929726,0.137715695297718,-2.022933229571581,-0.3047979772090912,-0.8778206706047058,0.0811903998255729,jumping
1761226664648943400,-3.535438271932304,0.6949830828338861,-1.835842970252037,-0.1589550077915191,-0.2344595193862915,-0.1787224113941192,jumping
1761226664658956500,-2.651897487574816,1.523562735208869,-1.682549766594171,-0.0841397196054458,0.3022933304309845,-0.292158842086792,jumping
1761226664668969700,-1.4806389547616243,2.586641463810205,-0.5650929665952921,-0.1029738560318946,0.6457068920135498,-0.2836833596229553,jumping
1761226664678982400,0.3784048583358526,3.4436803179502484,1.2453273931086062,-0.1658405363559723,0.8135767579078674,-0.249945655465126,jumping
1761226664688995600,1.5807032570570707,3.9329865144163367,2.8178882602423427,-0.2307430952787399,0.8013834953308105,-0.2403481602668762,jumping
1761226664699008500,2.009485134455561,4.145351500245929,3.923818873098493,-0.2491382658481598,0.7195397019386292,-0.2643608450889587,jumping
1761226664709021700,2.1563003742709754,4.16034331767261,4.275540307170153,-0.1943213492631912,0.6797670125961304,-0.3305832743644714,jumping
1761226664719034400,2.039499164447188,4.186456248572468,4.045294796735048,-0.0840557366609573,0.5575741529464722,-0.4394944906234741,jumping
1761226664729047600,1.6741016717225312,4.283064272934198,3.843448282310367,0.0967023223638534,0.4472210109233856,-0.5725231170654297,jumping
1761226664739060700,1.4205626717224715,4.274018212169408,3.581637420788407,0.3117385506629944,0.4037846624851227,-0.7045662999153137,jumping
1761226664749073400,1.1881567683830856,4.341345781511068,3.1058360180616376,0.5282000303268433,0.3860522806644439,-0.8155497908592224,jumping
1761226664759086600,1.262648530265689,4.540671253025532,2.7958184672534463,0.7565502524375916,0.4073266685009002,-0.8835402131080627,jumping
1761226664769100500,1.4397180385693906,5.005673029318452,2.649451847988367,0.9391731023788452,0.3966061174869537,-0.8991844058036804,jumping
1761226664779113500,1.7486135996103285,5.437512540721893,2.773961440232396,1.0194886922836304,0.2574794590473175,-0.8718960285186768,jumping
1761226664789126700,2.086301832154393,5.489516284203529,3.5359687255471943,1.0077475309371948,-0.0205481816083192,-0.8693675994873047,jumping
1761226664799139600,1.951048143056035,5.2148471101522444,4.242579117810726,0.9806848764419556,-0.3201158046722412,-0.8910202383995056,jumping
1761226664809152500,1.532715763479471,4.644525595253706,4.08226551399678,1.0043278932571411,-0.6455873250961304,-0.9113273620605468,jumping
1761226664819165400,1.1882827328503132,4.119616170486808,2.907746225821972,1.142621994018555,-1.0182828903198242,-0.8866119384765625,jumping
1761226664829178600,0.7787016688756644,3.594491057142615,1.0800441841885446,1.413042068481445,-1.1396788358688354,-0.8317404389381409,jumping
1761226664839191600,0.184122641685605,2.7888264164090155,-1.7093243762731551,1.747891902923584,-0.9563143253326416,-0.8122000098228455,jumping
1761226664849204500,-0.94030355893448,1.7534142778903246,-4.508424641676247,2.0712344646453857,-0.5147920250892639,-0.937839686870575,jumping
1761226664859217400,-2.936194321671128,0.1902554453521966,-6.262641175860166,2.324197769165039,0.1332961320877075,-1.259501576423645,jumping
1761226664869230600,-4.882877547515928,-1.49155723913908,-7.125009116068482,2.4095704555511475,0.7606950402259827,-1.6410199403762815,jumping
1761226664879243500,-5.651874837848544,-2.919917725130916,-6.737403883188962,2.1770284175872803,1.4421905279159546,-1.789971113204956,jumping
1761226664889256400,-3.686857790672779,-4.360348588144779,-5.031101485085487,1.6013307571411133,2.0714030265808105,-1.5678410530090332,jumping
1761226664899269600,0.1852405397996306,-5.580779440405965,-2.732432621274888,0.7886017560958862,2.338029623031616,-0.948330581188202,jumping
1761226664909282600,4.899646603748202,-7.116755082464218,-0.1706345068201422,0.00989028532058,2.0388505458831787,-0.306163877248764,jumping
1761226664919295500,7.413194774296879,-9.63223451333642,1.5156541540414097,-0.5386038422584534,1.0390790700912476,0.1012243330478668,jumping
1761226664929308400,6.311835707139968,-11.785696157050133,1.577868033631146,-0.8123691082000732,-0.1605114489793777,0.3157310485839844,jumping
1761226664939321600,4.085189000228048,-12.76578037610054,-0.3845002526015043,-0.8262720108032227,-1.047197341918945,0.3567018806934356,jumping
1761226664949334500,1.760300822533667,-12.550440173852444,-4.051678068031371,-0.6574728488922119,-1.2228482961654663,0.2056612372398376,jumping
1761226664959347500,-0.9775612764440476,-11.717138753652572,-8.22005242420733,-0.4606786370277405,-0.4433374404907226,-0.0382134094834327,jumping
1761226664969360600,-3.0232758082747457,-10.326397511959076,-11.41200897488594,-0.3792141377925873,0.870966911315918,-0.2358953356742859,jumping
1761226664979373600,-3.374550083100796,-8.323350886118412,-11.987851883554455,-0.5052525997161865,1.992231011390686,-0.2790578603744507,jumping
1761226664989386500,-1.8935187680207195,-6.440438706177472,-9.04414236394763,-0.7961126565933228,2.637739658355713,-0.1798188835382461,jumping
1761226664999399400,0.0971243763860315,-4.484477656638622,-4.096883237414062,-1.1778162717819214,2.730975389480591,0.0674439966678619,jumping
1761226665009412600,1.8785323574215171,-2.415587562534213,0.9120487937003372,-1.5348455905914309,2.2930142879486084,0.3790932297706604,jumping
1761226665019425500,3.079955142351985,-0.895889101538062,4.945951843327284,-1.6966969966888428,1.4292514324188232,0.6515258550643921,jumping
1761226665029438500,3.074408321879804,0.1302554424196481,7.065670207393169,-1.5904957056045532,0.440344899892807,0.8223615288734436,jumping
1761226665039451600,2.149901759275049,1.0079477930098772,6.985851405268908,-1.2764613628387451,-0.5043996572494507,0.8746923208236694,jumping
1761226665049464600,0.8788033805720508,1.843523003360629,5.737488589987159,-0.8596367239952087,-1.2176311016082764,0.8107466101646423,jumping
1761226665059477500,-0.324880188897252,2.3806308154433964,4.167903523793816,-0.429376482963562,-1.5448060035705566,0.6815769672393799,jumping
1761226665069490400,-1.1332902558814733,2.8731033669859167,2.5816058077305555,-0.1024295091629028,-1.5649924278259275,0.5863135457038879,jumping
1761226665079503600,-1.3927674868240951,3.5910908933103083,1.9312600312635304,0.0753498971462249,-1.4035277366638184,0.5630220770835876,jumping
1761226665089516500,-1.140315405277908,4.349630794775486,2.204473745809495,0.1290275007486343,-1.0717661380767822,0.605813205242157,jumping
1761226665099529500,-0.6847348066724837,5.036797650900483,2.700983882305026,0.1232500374317169,-0.64007568359375,0.6734819412231445,jumping
1761226665109542700,-0.4156526389732957,5.653835908788443,3.2128257357060908,0.0848515182733535,-0.347670167684555,0.7513573169708252,jumping
1761226665119555600,-0.1311972533144056,5.996964871081709,3.9972605414062734,0.0503196455538272,-0.225612536072731,0.7882832288742065,jumping
1761226665129568500,0.1487766030162572,6.05863952922821,4.677274310906231,0.0408473126590251,-0.2198124378919601,0.7448925971984863,jumping
1761226665139581400,-0.0056933893360197,6.023873920795321,4.889144498956203,0.078329786658287,-0.2905099987983703,0.6452204585075378,jumping
1761226665149594600,-0.312232742639631,5.914622103437781,4.732860881310701,0.1997457146644592,-0.3902371227741241,0.4861288070678711,jumping
1761226665159607300,-0.7663225181654095,5.627097539466619,4.190900953021646,0.421768307685852,-0.4757581651210785,0.2713645994663238,jumping
1761226665169620500,-1.2229751299165188,5.3521489639520645,3.485408751133084,0.7228482365608215,-0.5615108609199524,0.0091127390041947,jumping
1761226665179633700,-1.1543955146871507,5.17207179826498,2.9503415049672124,1.0112110376358032,-0.6080471277236938,-0.2696466445922851,jumping
1761226665189646600,-0.8988279314689338,5.586408970725536,3.082587828943133,1.1613377332687378,-0.5616654753684998,-0.4913231134414673,jumping
1761226665199659500,-0.3090735479563474,6.278611482930183,3.657728142300248,1.1086907386779783,-0.5390137434005737,-0.531898558139801,jumping
1761226665209672400,1.0112731380403042,6.548555382025241,4.327715315565467,0.8570089936256409,-0.6054114103317261,-0.476988673210144,jumping
1761226665219685600,1.8766297386705877,6.639731444466114,5.186604181486368,0.5175771713256836,-0.5974942445755005,-0.3873892426490783,jumping
1761226665229698300,2.0360976854406294,6.542576892137527,5.530089117610454,0.2077157348394394,-0.5836524963378906,-0.2356707900762558,jumping
1761226665239712500,2.338062278174609,6.064955872768163,4.985213009613752,0.0184463094919919,-0.674740731716156,-0.0728995352983474,jumping
1761226665249725400,2.175099328895658,5.228578113862872,4.0014474717020985,-0.0541330836713314,-0.9261233806610109,0.0562315545976161,jumping
1761226665259738400,1.5133730573669075,4.188852788320183,2.8222642833694813,0.0347949266433715,-1.2029638290405271,0.1654518991708755,jumping
1761226665269751300,0.8353039921939373,3.069695614144206,1.1358727466553449,0.2243859022855758,-1.3634586334228516,0.1982441991567611,jumping
1761226665279764500,-0.1374593824490904,1.8790052356302736,-0.7606377505272627,0.4111591577529907,-1.492230772972107,0.1074167191982269,jumping
1761226665289777400,-1.684704898801446,0.8028940069764852,-2.0698986866250637,0.5665969252586365,-1.5707859992980957,-0.0350813046097755,jumping
1761226665299790300,-2.9630367358893155,-0.1620329749524593,-2.8042051873266693,0.725342869758606,-1.5084770917892456,-0.256111204624176,jumping
1761226665309803500,-3.979840620049834,-1.1474334205895662,-3.855006033635139,0.931633472442627,-1.3075709342956543,-0.524569571018219,jumping
1761226665319816400,-4.735563710528612,-1.9312445414334531,-5.110375512808561,1.1209677457809448,-0.8834794163703918,-0.7984247207641602,jumping
1761226665329829400,-4.895657826372981,-2.9694349124938246,-6.218907248073816,1.2944293022155762,0.0994965434074401,-1.0654371976852417,jumping
1761226665339842300,-4.423991331493855,-4.897466921621561,-7.458731367591023,1.4838440418243408,1.6853201389312744,-1.2571383714675903,jumping
1761226665349855500,-2.702130129730701,-6.5725155188053845,-8.403154490673542,1.5044708251953125,2.863088846206665,-1.1168442964553833,jumping
1761226665359868400,0.5998823942951858,-7.441881939598917,-6.760286746126413,1.2015202045440674,2.454796075820923,-0.6058486104011536,jumping
1761226665369881300,4.412778155823052,-8.96290142006576,-2.2800533029288053,0.500702440738678,0.5367512702941895,0.0646319910883903,jumping
1761226665379894500,6.650680708503723,-10.470546455174684,2.367160216234624,-0.2405827641487121,-1.3317872285842896,0.6105093955993652,jumping
1761226665389907500,6.696274000421166,-11.186519134545325,3.610635843996704,-0.6336376667022705,-2.1650357246398926,0.9015098214149476,jumping
1761226665399920400,3.4099311930835245,-10.946528475165367,-0.8137585153400898,-0.7298237681388855,-1.90242612361908,1.0063151121139526,jumping
1761226665409933300,-0.2384948678642511,-9.755504334652423,-6.309638489356637,-0.7378113865852356,-0.7440927624702454,0.9385350346565248,jumping
1761226665419946500,-2.9640307153627274,-8.424663727170229,-9.53213630877137,-0.7602536082267761,0.7053973078727722,0.8709407448768616,jumping
1761226665429959400,-3.8655630834847687,-7.300795306563377,-10.250440061438082,-0.808296799659729,1.9265079498291016,0.8254326581954956,jumping
1761226665439972400,-3.1506074722021817,-6.186410169094801,-8.774030707070231,-0.8195324540138245,2.7094151973724365,0.7841259241104126,jumping
1761226665449985500,-2.3282887799181045,-4.938305127966403,-5.7436979660213,-0.7448182702064514,3.0241973400115967,0.7414676547050476,jumping
1761226665459998500,-1.4901739680871366,-3.642597208663821,-2.3292680002138018,-0.6077309250831604,2.7167913913726807,0.6877238154411316,jumping
1761226665470011400,-1.0059915443755685,-2.248216149163246,1.403769357831776,-0.4325466156005859,1.8003864288330078,0.6454197764396667,jumping
1761226665480024300,-0.3263720348902046,-1.206895663383603,4.703411791725457,-0.2384324520826339,0.6091997027397156,0.5819534659385681,jumping
1761226665490037500,0.6084111531876027,-0.2968617166370153,6.739674166208506,-0.1308449953794479,-0.5260818600654602,0.5223820209503174,jumping
1761226665500050400,0.6736486183822155,0.9314636882662772,7.46283880290985,-0.1617689877748489,-1.418429255485535,0.4867481589317322,jumping
1761226665510063400,0.3533759232804179,1.9849048199504613,7.663461913019418,-0.3021143972873688,-1.90534245967865,0.5201279520988464,jumping
1761226665520076500,0.3120907038204372,2.5118466273278,7.277239074409008,-0.4912893772125244,-1.9954434633255005,0.5368686318397522,jumping
1761226665530089500,0.2393567453905939,2.838294503933191,6.523782175296545,-0.742962658405304,-1.837873458862305,0.5218244791030884,jumping
1761226665540102400,-0.0872688258692622,3.110107704031467,5.7788815076053135,-1.0467840433120728,-1.4861761331558228,0.4701516926288605,jumping
1761226665550115300,-0.4301435211405158,3.3257857599318026,5.245761303853988,-1.3597382307052612,-1.0143862962722778,0.3860509395599365,jumping
1761226665560128500,-0.4120876399680971,3.624797348079085,4.646200250467658,-1.649754524230957,-0.509318470954895,0.3064797520637512,jumping
1761226665570141400,-0.0882435161203146,3.933880832907557,4.16294473234266,-1.8717490434646609,-0.0468416288495063,0.2432435005903244,jumping
1761226665580154400,0.3716647364258766,4.275785221841931,3.720534727086127,-1.9732040166854856,0.2398644983768463,0.1988776624202728,jumping
1761226665590167300,0.7003580538704991,4.586920963025093,3.4028467877805237,-1.890724778175354,0.3450708091259002,0.1477431058883667,jumping
1761226665600180500,0.8803384811848401,4.659181897115707,3.033458764114976,-1.603491187095642,0.2908124923706054,0.0570695921778678,jumping
1761226665610193400,0.8203530912995338,4.480328135743737,2.6102707612007854,-1.2029060125350952,0.1109963804483413,-0.095329001545906,jumping
1761226665620206300,0.6125821552619337,4.346943163126707,2.3969331309467554,-0.7406675815582275,-0.1714141964912414,-0.2865326106548309,jumping
1761226665630219500,0.389480379101634,4.25424675925076,2.364795532929897,-0.2763055264949798,-0.4780441522598266,-0.5077922344207764,jumping
1761226665640232400,0.3096995709002018,4.190727934542298,2.376413490009308,0.1034352332353591,-0.7410616278648376,-0.7133974432945251,jumping
1761226665650245400,0.4086845535263418,4.327497873422503,2.475625559389591,0.3461373448371887,-0.9094343781471252,-0.8365577459335327,jumping
1761226665660258300,0.7841875529408454,4.5629871297299855,2.567809337568283,0.4682205617427826,-0.8657441139221191,-0.9208468198776244,jumping
1761226665670271500,1.180757598042488,4.995856568703055,2.441570729574561,0.5124671459197998,-0.7125515937805176,-0.9405339360237122,jumping
1761226665680284400,1.2976698670253155,5.60501371795237,2.1951596817582844,0.5236079096794128,-0.4643653333187103,-0.8726105690002441,jumping
1761226665690297300,1.895868107625842,5.693534881970286,2.0554241710707544,0.4634497761726379,-0.2186218649148941,-0.7560464143753052,jumping
1761226665700311300,2.1338994496315715,5.528568776175379,2.1345932771146297,0.3356371223926544,0.0003921529278159,-0.6566089391708374,jumping
1761226665710324200,1.7073951617762446,5.008629541036487,2.3505782070070502,0.1855866611003875,0.1431237459182739,-0.5281617641448975,jumping
1761226665720337400,1.5041777973897754,3.9615719729095695,2.3692484206855298,0.0900298655033111,0.1626342535018921,-0.3942844271659851,jumping
1761226665730350600,1.2221262580022214,3.0666397337049243,2.067896699152887,0.1044117286801338,-0.0144952572882175,-0.2518729567527771,jumping
1761226665740363300,0.7140496023535728,2.06842189207077,1.1998559740051626,0.2356266379356384,-0.3538294434547424,-0.1083502992987632,jumping
1761226665750376400,-0.000965922422707,0.7616986577570438,-0.0568260490715503,0.4477346539497375,-0.8093269467353821,-0.0049440171569585,jumping
1761226665760389400,-1.1840092933148143,-0.6191513045191764,-1.5005486471071838,0.7154409885406494,-1.2199640274047852,-0.0424066223204135,jumping
1761226665770402300,-2.9763936455905435,-2.490114687991142,-2.957446660797298,1.0099372863769531,-1.445986032485962,-0.277815967798233,jumping
1761226665780415200,-4.9133203243136405,-4.879258480235934,-5.163602660605311,1.2675528526306152,-1.2438676357269287,-0.6406340599060059,jumping
1761226665790428400,-6.842020441961288,-7.185384966576099,-7.995552179425954,1.509791612625122,-0.1728303432464599,-1.067126750946045,jumping
1761226665800441600,-7.758706832334399,-9.933652578103542,-11.467708065754174,1.811004996299744,1.7793747186660769,-1.51166832447052,jumping
1761226665810454300,-7.595525271868706,-11.996774025678636,-14.408018006050586,2.0951247215271,3.5409951210021973,-1.6904189586639404,jumping
1761226665820467500,-5.266916904607415,-12.802771259367466,-14.271262095695732,2.1664106845855717,3.7912027835845943,-1.465192437171936,jumping
1761226665830480400,-1.0383642663225532,-13.6037977189064,-9.98834044610262,1.7870564460754397,2.513975143432617,-0.966317892074585,jumping
1761226665840493600,2.3916698035910726,-14.003189835691453,-3.690115915685892,1.1801575422286987,0.9302636384963988,-0.3754129409790039,jumping
1761226665850506200,4.627319608908891,-13.652878852939605,0.5445473144337535,0.8447470664978027,-0.1136369109153747,0.0210904739797115,jumping
1761226665860519400,4.422240688434243,-12.725191176080704,-0.3609975042000413,0.849642276763916,-0.5450672507286072,0.173968881368637,jumping
1761226665870532600,2.4442946015805003,-10.544114380210637,-3.575516892081499,0.9773629307746888,-0.6134713888168335,0.1071187406778335,jumping
1761226665880545300,0.8741651993773877,-8.130964858478308,-5.452054276293516,1.0963759422302246,-0.328604519367218,0.0607725419104099,jumping
1761226665890558500,0.4337392075449228,-6.108743576568365,-5.823432596993446,1.152672529220581,0.2984796464443207,0.1361125707626342,jumping
1761226665900571400,0.6155075411893427,-4.079469453537464,-5.059227509373426,1.10466206073761,0.8142969012260437,0.2661951780319214,jumping
1761226665910584600,0.0855380565539002,-2.2248598234951493,-2.597568223755061,1.051156759262085,1.001460313796997,0.3117203116416931,jumping
1761226665920597200,-0.4449411311693489,-1.4130910206675529,0.683563863196969,0.9002023339271545,0.7353841662406921,0.2056178301572799,jumping
1761226665930610400,-0.3449735672466457,-0.6755746180087328,4.0291283825710416,0.4881167709827423,0.1696062386035919,0.0846453309059143,jumping
1761226665940623400,0.1327436059735715,0.6168272454857826,7.190840893894434,-0.10432168841362,-0.3385007381439209,0.0439406223595142,jumping
1761226665950636300,0.7024531264536082,2.043296803164482,8.475877781578898,-0.6931407451629639,-0.4697644710540771,0.0477018058300018,jumping
1761226665960649500,0.7719391890034079,3.5839357608586546,7.640887677639722,-1.214600920677185,-0.2594229578971863,0.073594644665718,jumping
1761226665970662400,0.3917762349538505,5.058719559851289,5.921667345774173,-1.6919043064117432,0.0726593658328056,0.1253502517938614,jumping
1761226665980675600,0.2815115872919559,6.016780747663974,4.809589900726079,-2.0467801094055176,0.3615956604480743,0.1596789807081222,jumping
1761226665990688300,0.29936142449826,6.582735299524664,3.986100264966488,-2.228095769882202,0.6674008965492249,0.1606635600328445,jumping
1761226666000701400,0.3182968649841844,6.914033538770675,3.138500854822993,-2.2715508937835693,0.9024105072021484,0.1614493280649185,jumping
1761226666010714400,0.2120928908899426,7.356820560646057,2.5846000211104747,-2.155198574066162,0.9810730814933776,0.2421804070472717,jumping
1761226666020727300,0.4629943819932639,7.572231490042805,2.390968085062504,-1.8093037605285645,0.9161546230316162,0.34047931432724,jumping
1761226666030740500,0.5840589483499526,7.454221781212091,2.1844676073521376,-1.2806942462921145,0.6800344586372375,0.3780503869056701,jumping
1761226666040753400,0.3132046564117073,7.275581954851746,2.0509131233870983,-0.7021945118904114,0.2214423716068267,0.377132385969162,jumping
1761226666050766600,0.3492411615632474,7.05065559361279,2.540070266771316,-0.1740404069423675,-0.3265040814876556,0.3549498319625854,jumping
1761226666060779300,0.7495322730146348,6.931784884038567,3.10350085311234,0.2172877788543701,-0.7686667442321777,0.3358553051948547,jumping
1761226666070792400,0.9703399468883872,7.116504322573542,3.5314398499459028,0.4763560891151428,-0.9945709705352784,0.3023655116558075,jumping
1761226666080805400,1.0909531162157655,7.308245622569322,3.5396629038900134,0.646096408367157,-1.0765434503555298,0.2588411569595337,jumping
1761226666090818300,0.8986099048040807,7.472036254844069,3.3451685057938096,0.7639292478561401,-0.9330164194107056,0.1985266804695129,jumping
1761226666100831500,0.8852528489723801,7.535983534097671,3.0284613942191,0.7952959537506104,-0.6432403922080994,0.1578746438026428,jumping
1761226666110844400,0.9068078243069352,7.803234540846943,2.863815021897852,0.707602858543396,-0.3596901595592499,0.1711489111185073,jumping
1761226666120858400,1.262078183031827,7.908667676699161,3.310409911623597,0.5310252904891968,-0.1012549549341201,0.1966188102960586,jumping
1761226666130870300,1.5274460063830018,7.837263067176938,3.8610207638800143,0.3096476197242737,0.122253768146038,0.2031435519456863,jumping
1761226666140884500,1.6206047670736907,7.58344963414967,4.297679073742032,0.0672523826360702,0.2735290825366974,0.1901545375585556,jumping
1761226666150897400,1.666282668534666,7.188001871076226,4.656118710152804,-0.1614971905946731,0.3616954088211059,0.1646941900253296,jumping
1761226666160910300,1.4351719195723531,6.70861208846867,4.785651391255855,-0.3153263330459595,0.3343693315982818,0.1284838765859604,jumping
1761226666170923500,1.0459925692439078,6.224897428399324,4.355967012059688,-0.3412050604820251,0.1617778688669204,0.0701164454221725,jumping
1761226666180936400,0.6068232994742692,5.436999330502748,3.5325451808393,-0.2499112039804458,-0.0366949029266834,-0.0239342302083969,jumping
1761226666190949400,0.2803760073907673,4.425476601615548,2.238702470886708,-0.0681232959032058,-0.2039627134799957,-0.1372844874858856,jumping
1761226666200962300,-0.3134786510474979,3.519868654617667,0.7839812167137861,0.164491131901741,-0.3125147521495819,-0.2385792732238769,jumping
1761226666210975500,-0.761701872627437,2.673999429267645,-0.681767919690907,0.3660202622413635,-0.1144869104027748,-0.3344067335128784,jumping
1761226666220988400,-1.3267739425651728,1.807726298314333,-2.3318118394777176,0.4346635043621063,0.2674751281738281,-0.3465934693813324,jumping
1761226666231001300,-1.7307791061036288,1.2246101837724446,-3.5639866132855413,0.442752867937088,0.6402202248573303,-0.3347051441669464,jumping
1761226666241014500,-2.161050345277041,-0.0337906259208917,-4.508210414403677,0.5103959441184998,0.8596757054328918,-0.4273645877838135,jumping
1761226666251029800,-2.6999939944848417,-2.570674079349637,-5.7542801503121845,0.6233171224594116,1.1871278285980225,-0.7317479252815247,jumping
1761226666261042700,-3.6478128974854944,-5.556540486684441,-6.994675347715615,0.6328040957450867,1.9549906253814695,-1.0639666318893433,jumping
1761226666271055600,-3.67970353500396,-8.367678688144684,-7.692682162284851,0.3980765342712402,3.142632007598877,-1.1160808801651,jumping
1761226666281068800,-1.3437114872321485,-10.508331119167805,-7.000707613617181,-0.1553638279438018,3.6640589237213135,-0.7633255124092102,jumping
1761226666291081700,3.1698750672519207,-12.534417259812354,-3.55994347537458,-0.7984850406646729,2.5222764015197754,-0.1879559308290481,jumping
1761226666301094700,7.136838085550069,-14.77933319838643,1.285168405109644,-1.0935368537902832,0.3445386290550232,0.2721490561962127,jumping
1761226666311107600,8.172974446690082,-17.103199339556692,1.6220602265790105,-0.7907402515411377,-1.845638394355774,0.473192423582077,jumping
1761226666321120800,5.528139152586459,-17.825060492444038,-3.391522845211625,-0.008092088624835,-3.0890262126922607,0.4386732280254364,jumping
1761226666331133700,1.3554910646140574,-16.94615701249838,-11.415929947721958,0.9509183168411256,-2.674325466156006,0.1754799485206604,jumping
1761226666341146600,-3.246615192583203,-14.732422978651522,-17.457880207955835,1.8747349977493288,-0.9409357905387878,-0.214052602648735,jumping
1761226666351159600,-6.640624009391665,-12.018777767693996,-20.71725375982523,2.488581418991089,1.0622700452804563,-0.5457522869110107,jumping
1761226666361172700,-7.383570620405673,-9.374585447669029,-19.17539256685972,2.6257882118225098,2.4799747467041016,-0.6597398519515991,jumping
1761226666371185700,-5.43561518266797,-7.509336350190639,-13.524195189881324,2.1560542583465576,3.029505729675293,-0.5532679557800293,jumping
1761226666381198600,-2.6049425519153475,-5.827815926644206,-5.266861375027895,1.3268063068389893,3.1618659496307373,-0.3336213231086731,jumping
1761226666391211800,-0.3858054899811744,-4.048282288113236,2.33177092294544,0.4531782269477844,3.207439661026001,-0.1342698484659195,jumping
1761226666401224700,0.5649194366592913,-2.3862889873355626,6.843067320665717,-0.2835190594196319,3.079101085662842,0.0514534786343574,jumping
1761226666411237600,0.8258059498779475,-0.5858639519453048,9.412423887676,-0.7810646295547485,2.6035637855529785,0.2370691448450088,jumping
1761226666421250600,1.3661561048828064,1.0334463914036751,10.877421621191502,-1.0585764646530151,1.7629848718643188,0.4565124213695526,jumping
1761226666431263700,2.3266845595918597,2.5884523126244545,11.560866826444864,-1.167882204055786,0.822265625,0.5999351143836975,jumping
1761226666441276700,2.4823037219792603,3.687506609970331,11.281491082137824,-1.1991732120513916,-0.0253215692937374,0.6407197117805481,jumping
1761226666451289600,1.4965169073730706,4.319346131148934,10.463108998650313,-1.1878987550735474,-0.7763990759849548,0.5870359539985657,jumping
1761226666461302800,0.5281362047936767,4.569872797590494,9.440701887655258,-1.117440938949585,-1.389093041419983,0.4245207011699676,jumping
1761226666471315700,-0.2292698703359812,4.710642035239935,8.148269044500589,-1.0333266258239746,-1.7624269723892212,0.2448454648256302,jumping
1761226666481328600,-0.5612396521680056,4.9493888320386406,6.55195145420432,-0.9856506586074828,-1.8360432386398315,0.0926357209682464,jumping
1761226666491341600,-0.5075475902732461,5.407551702222228,5.152748673635721,-0.961890995502472,-1.6563714742660522,0.0600090734660625,jumping
1761226666501354800,-0.2880123474881053,6.114964058518409,3.853346575990319,-0.924636721611023,-1.3101491928100586,0.1838052719831466,jumping
1761226666511367700,0.0702932872794568,6.705988169705868,2.833575658717751,-0.8046211004257202,-0.8537042140960693,0.3680393099784851,jumping
1761226666521380600,0.1688521534480154,7.064277876251936,1.9835370387285949,-0.6158912181854248,-0.4982198476791382,0.5002942681312561,jumping
1761226666531393800,-0.223797795600444,7.128177224710584,1.580613240686059,-0.3570884466171264,-0.3574587106704712,0.5449067950248718,jumping
1761226666541407500,-0.7995446965485811,6.961549323183298,1.8233441386848688,-0.0449940003454685,-0.3585720658302307,0.4855266213417053,jumping
1761226666551420700,-1.187643996555358,6.591570932409167,2.0918980447262525,0.2596700191497803,-0.5523117184638977,0.3351592123508453,jumping
1761226666561433900,-1.431611158350855,6.425520538508891,2.572586634972692,0.5241119861602783,-0.7891170382499695,0.1486778855323791,jumping
1761226666571446800,-1.4861791993625462,6.337902460810541,3.1106071779862043,0.698809802532196,-0.98072350025177,-0.0446050241589546,jumping
1761226666581459700,-1.1954545241758228,6.412476932540535,3.500991812451184,0.7916786074638367,-1.1196521520614624,-0.2349948734045028,jumping
1761226666591472600,-0.9191521959647536,6.673376524436473,3.929733357839286,0.7937675714492798,-1.1449847221374512,-0.3789650797843933,jumping
1761226666601485800,-0.377335475538671,6.837250743341445,4.157453149189054,0.6864379644393921,-1.1242029666900637,-0.4507748484611511,jumping
1761226666611498500,0.2610401694104075,7.119615732592344,4.447192758861184,0.452059805393219,-0.9642716646194458,-0.4616914093494415,jumping
1761226666621511700,0.6205952197171747,7.093234506145119,4.678700836578011,0.0989207401871681,-0.7790198922157288,-0.3811144232749939,jumping
1761226666631524900,1.1689539091326295,6.9099974151223895,4.820001112364232,-0.2706642150878906,-0.6558492183685303,-0.2498198002576828,jumping
1761226666641537800,1.4669287015780803,6.5777557575464245,4.671054997999966,-0.5273910164833069,-0.6066814064979553,-0.1571242064237594,jumping
1761226666651550700,1.025023723234236,5.683796747288108,3.4910964413806798,-0.5818870067596436,-0.6538814306259155,-0.1192303597927093,jumping
1761226666661563600,0.0372052566699683,4.4075095677703615,1.668417780867219,-0.4124230444431305,-0.7324457168579102,-0.1582363545894622,jumping
1761226666671576800,-1.1592239577569068,2.970224017044901,-0.4787412555709481,-0.0583219677209854,-0.7189158201217651,-0.3177144229412079,jumping
1761226666681589500,-2.6244594455510377,1.6744775192975998,-2.701393632149696,0.4081294238567352,-0.6866173148155212,-0.6202335953712463,jumping
1761226666691602700,-4.056549765720964,0.7119611056417227,-4.458574276836216,0.883363664150238,-0.6734210848808289,-0.9690634608268738,jumping
1761226666701615600,-4.752380405294895,-0.0803098005115985,-5.49451219279468,1.268074631690979,-0.73253333568573,-1.2517130374908447,jumping
1761226666711628800,-4.610113038042187,-0.4700912083864211,-5.917593228203058,1.5532206296920776,-0.6584579944610596,-1.4651066064834597,jumping
1761226666721641700,-4.335547324365377,-0.6742834091544151,-6.292680924814939,1.7079144716262815,-0.2159563153982162,-1.57467520236969,jumping
1761226666731654700,-3.915084362500906,-0.9408528633803128,-6.810564396467805,1.6487038135528564,0.4597667455673218,-1.5324698686599731,jumping
1761226666741667800,-2.850756802882254,-1.5421891097456215,-6.687614308625459,1.337226629257202,1.2953896522521973,-1.3482664823532104,jumping
1761226666751680500,-0.9780675454657524,-3.3411943414658305,-5.5956865021586415,0.7750774025917053,2.1147422790527344,-0.9362778067588806,jumping
1761226666761693700,2.2926443428240715,-6.156725809448957,-3.784564131665229,0.067830815911293,2.3634839057922363,-0.3205486536026001,jumping
1761226666771706600,6.438358392772078,-9.448702238759395,-1.2588672581613063,-0.5071269869804382,1.735501766204834,0.3014445900917053,jumping
1761226666781719800,8.956126811364292,-12.836605724430084,0.545050003258884,-0.7375763058662415,0.4039637446403503,0.8061820268630981,jumping
1761226666791732700,8.418086686867476,-14.719398661905526,-0.0134828741684556,-0.526620090007782,-1.050625562667847,1.1800647974014282,jumping
1761226666801745700,6.5879533264338965,-15.333973160028457,-3.150636406035721,0.0444298014044761,-2.200545310974121,1.3656225204467771,jumping
1761226666811758800,3.974404566475749,-15.093804805994033,-7.316538819140195,0.7519038319587708,-2.577195405960083,1.299301028251648,jumping
1761226666821771500,0.6843395237445831,-14.173147758424282,-10.645200426769255,1.367161512374878,-2.03462290763855,1.056680679321289,jumping
1761226666831784700,-2.0809356289461256,-12.380924149668216,-12.546046907329558,1.7370303869247437,-0.8641912937164307,0.8217740058898926,jumping
1761226666841797600,-3.1922154938757417,-10.599993503820896,-12.443609446161984,1.7374064922332764,0.327564388513565,0.6947391629219055,jumping
1761226666851810800,-2.4198498961538077,-8.89730871169269,-9.771752874141931,1.3548152446746826,1.1436725854873655,0.7005634903907776,jumping
1761226666861823700,-0.8108554873749614,-7.196594927376508,-4.944852357652783,0.7578864097595215,1.6557836532592771,0.7630630135536194,jumping
1761226666871836700,0.6058762278825044,-5.5574429884821175,-0.2309795237980783,0.1374710500240326,1.897661566734314,0.8505744934082031,jumping
1761226666881849900,1.314956955782324,-3.7685382950156927,3.3461148467332125,-0.3937975466251373,1.836791753768921,0.9201440811157228,jumping
1761226666891862500,1.5399815166987478,-2.0754285559624432,5.87984246647954,-0.812663733959198,1.4457441568374634,0.9616036415100098,jumping
1761226666901875700,1.6952740774802864,-0.5335416440337896,7.555834481993317,-1.1140819787979126,0.8426945805549622,0.9829221963882446,jumping
1761226666911889700,1.8463013820327816,1.0894348206073046,8.363258533614873,-1.2839293479919434,0.1915178447961807,1.0064197778701782,jumping
1761226666921902600,1.926559452357143,2.6114479882866144,8.006456435278057,-1.290572166442871,-0.3822382688522339,1.012323260307312,jumping
1761226666931915800,1.5511806638441978,3.8195536119818687,6.838318080312013,-1.1889547109603882,-0.7578606009483337,0.9473296403884888,jumping
1761226666941928700,0.9160537915579974,4.466003257793187,5.290780595275759,-1.1269876956939695,-1.0542218685150146,0.7982541918754578,jumping
1761226666951941600,0.0104148648999631,4.886712303373217,4.614171373522281,-1.1750094890594482,-1.2081706523895264,0.6217764019966125,jumping
1761226666961954600,-0.4535625367812812,5.093332023549079,4.436387871730328,-1.285656452178955,-1.1660622358322144,0.4437304139137268,jumping
1761226666971967700,-0.7470102071911097,5.3460085615009065,3.839615280018746,-1.37679123878479,-0.9036633372306824,0.3113984763622284,jumping
1761226666981981000,-0.8102882088810205,5.759318144479393,2.778406144681573,-1.4162791967391968,-0.4463615715503692,0.2569649219512939,jumping
1761226666991993600,-0.6156827516257762,6.243765794998407,1.6209975657835602,-1.3465979099273682,0.1446612477302551,0.2419574856758117,jumping
1761226667002006800,-0.5010363817483187,6.530726879867911,0.6620876521870493,-1.1710810661315918,0.6899434328079224,0.228110209107399,jumping
1761226667012019700,-0.5124406960770488,6.685044750398397,0.266410464271903,-0.8992112874984741,0.9923964738845824,0.1376412957906723,jumping
1761226667022032600,-0.5696494608558714,6.61920537378788,0.6736693689092993,-0.5687091946601868,1.0246707201004028,0.0058697680942714,jumping
1761226667032045600,-0.463040851483494,6.477858043989539,1.5439426754146814,-0.2342448830604553,0.9362971186637878,-0.1477237790822982,jumping
1761226667042058800,-0.0250999544650316,6.585130085706711,2.3029545783057808,0.0429334565997123,0.8141959309577942,-0.2914430201053619,jumping
1761226667052071700,0.46082419834733,6.93655399813652,3.037407794001698,0.2260891497135162,0.731561541557312,-0.4133601486682892,jumping
1761226667062084600,0.981330711980164,7.216541736862063,3.8752670236364,0.2689023911952972,0.7042040824890137,-0.4861474633216858,jumping
1761226667072097800,1.4162553299173712,7.4049536001741885,4.802299743717908,0.200976088643074,0.6668636202812195,-0.5130166411399841,jumping
1761226667082110700,1.7905210426218807,7.648343838864564,5.75156563065648,0.0848689302802085,0.5866122245788574,-0.5126032829284668,jumping
1761226667092123600,1.994323805680871,7.813675855362415,6.411437068098783,-0.0303434189409017,0.4551394581794739,-0.4973636269569397,jumping
1761226667102136600,2.1399580190181733,7.782741203394532,6.653199997848272,-0.1609127968549728,0.3295828402042389,-0.4817932844161987,jumping
1761226667112149800,2.1719123694226146,7.735015575623512,6.664366704028844,-0.3144725263118744,0.1830291002988815,-0.4416799545288086,jumping
1761226667122162700,2.055131033343077,7.540463309860229,6.54771834667921,-0.4772286117076874,0.0223276000469923,-0.3925231993198395,jumping
1761226667132175600,2.052753198295832,7.19582745013535,6.227596750485897,-0.589908242225647,-0.1731689274311065,-0.4010460972785949,jumping
1761226667142188800,1.5141216837771236,6.830961287808418,5.460802230894565,-0.6171884536743164,-0.309296190738678,-0.445637047290802,jumping
1761226667152201700,0.9058813571117816,6.391219624978303,4.20826505253762,-0.5850030779838562,-0.3290706872940063,-0.5363741517066956,jumping
1761226667162214700,0.2714280001729726,5.800725090622902,2.8344781605154274,-0.5450282096862793,-0.3120540082454681,-0.627997100353241,jumping
1761226667172227600,-0.4776135667152703,5.294747745341062,1.8162033270195128,-0.4453602433204651,-0.4242463111877441,-0.7174422740936279,jumping
1761226667182240800,-0.9975535325065256,4.727895952379703,0.9123299487292766,-0.2175092250108719,-0.6313516497612,-0.8336415886878967,jumping
1761226667192253700,-1.4145236838191746,3.857691911718249,-0.5256429997384547,0.1237261295318603,-0.7414011359214783,-0.9317857027053832,jumping
1761226667202266600,-1.740546613010764,2.9917110417097805,-2.532632225725054,0.4995777904987335,-0.7532090544700623,-0.936212420463562,jumping
1761226667212279800,-1.8552552344694733,2.3357529783189297,-4.623499466098845,0.8859289884567261,-0.6477468013763428,-0.9961497783660888,jumping
1761226667222292700,-2.4007541505396364,1.0409072288036345,-6.592825900906324,1.267748475074768,-0.3609178066253662,-1.1744787693023682,jumping
1761226667232305700,-3.7837797032892704,-0.9341799614876508,-8.378105389612912,1.5633833408355713,0.2024230808019638,-1.3704626560211182,jumping
1761226667242318600,-4.763177109119296,-2.802608273524046,-9.518851295262577,1.701460599899292,1.5133614540100098,-1.4696712493896484,jumping
1761226667252328700,-4.063704313650727,-4.89549123763442,-10.461500394409894,1.5174981355667114,3.231022834777832,-1.1847803592681885,jumping
1761226667262341400,-0.3010577070221304,-6.529052809175848,-9.89165935650468,0.831574559211731,3.940345525741577,-0.3158031702041626,jumping
1761226667272354600,6.042967912843823,-8.808817942813038,-4.813342531257868,-0.2275345176458358,2.4566617012023926,0.8176011443138123,jumping
1761226667282368800,11.794144836443662,-13.038159393388032,3.713554074418545,-1.0899012088775637,-0.6421998739242554,1.7202130556106567,jumping
1761226667292381400,12.076389414185284,-15.853533624982832,8.104000863707066,-1.171798825263977,-3.794630289077759,2.2079787254333496,jumping
1761226667302394600,7.654933738648891,-17.700821533834933,2.81699861792624,-0.5277912616729736,-5.917122840881348,2.1353354454040527,jumping
1761226667312407600,-0.9274456847965716,-18.02965952044725,-7.258850600281358,0.4523694217205047,-5.746665954589844,1.4391720294952393,jumping
1761226667322420500,-9.86106664984226,-17.329512186717984,-16.765648469656703,1.4694429636001587,-3.16256046295166,0.4029203951358795,jumping
1761226667332433400,-15.043220281660556,-15.254334390646218,-23.34534133274555,2.1353650093078613,0.1838922202587127,-0.4433959722518921,jumping
1761226667342446600,-14.983977819097042,-12.354859149563312,-24.084646956908703,2.361743450164795,2.7096896171569824,-0.7713817954063416,jumping
1761226667352459800,-10.55681019565463,-9.77294939045012,-18.74861209241152,2.022479772567749,3.712151527404785,-0.6996266841888428,jumping
1761226667362472400,-4.742596093383432,-7.768890957218408,-9.652745386445522,1.233576774597168,3.658929109573364,-0.3113064169883728,jumping
1761226667372485600,0.6821979816712439,-5.685903364178538,0.0130590957984328,0.3549184203147888,3.268580436706543,0.2109160125255584,jumping
1761226667382498600,4.266633947136998,-3.7226223470151423,6.42498394741416,-0.2856426537036896,2.735344648361206,0.7278846502304077,jumping
1761226667392511500,5.181204952791333,-1.9019617483258249,9.010532355290652,-0.5613352060317993,2.0123279094696045,1.1614967584609983,jumping
1761226667402524400,4.992492645227909,-0.3649877428799867,9.173269094598291,-0.5616590976715088,1.18772554397583,1.393601655960083,jumping
1761226667412537600,3.9834459510654208,0.8013058610022068,8.402252573397755,-0.4377228319644928,0.4854739010334015,1.4078031778335571,jumping
1761226667422550800,2.150857598695159,1.3918869045972824,7.568367800351977,-0.3294233381748199,-0.0067394892685115,1.2716655731201172,jumping
1761226667432563500,0.7908423346549273,1.9011475093334915,7.118166702827811,-0.3563500344753265,-0.2673705220222473,1.0303137302398682,jumping
1761226667442576600,-0.2068210879668593,2.316632098263502,7.391922269165516,-0.5510560870170593,-0.4451372623443603,0.7007288336753845,jumping
1761226667452589600,-0.6917721579633653,2.664583366146684,8.1594392578125,-0.8692758679389954,-0.5849243998527527,0.3839881420135498,jumping
1761226667462602500,-0.66486530020684,3.123219699060917,8.907710278719662,-1.1955591440200806,-0.6330463886260986,0.088804617524147,jumping
1761226667472615400,-0.5376214606933295,3.6969150743067263,8.904863072594999,-1.4837863445281982,-0.6674685478210449,-0.1650678664445877,jumping
1761226667482628600,-0.3020458412766456,4.246211921355128,8.383085516113042,-1.702511191368103,-0.6861070394515991,-0.3785651326179504,jumping
1761226667492641500,0.0383968045420944,4.807168226537108,7.6832058934092515,-1.8446121215820312,-0.6793556213378906,-0.5455240607261658,jumping
1761226667502654500,0.4051823906242847,5.404378917405009,6.758452516436576,-1.8930743932724,-0.6671063303947449,-0.6483408808708191,jumping
1761226667512667600,0.8930246520176529,6.11324848677218,5.773958664250373,-1.85487163066864,-0.6163232922554016,-0.6765994429588318,jumping
1761226667522680600,1.4619393688581883,6.803844732823968,4.780489478448033,-1.7380460500717163,-0.5251568555831909,-0.676962673664093,jumping
1761226667532693500,1.7047278422631322,7.35358815459609,3.8743621837511655,-1.5824767351150513,-0.4155485928058624,-0.7109938859939575,jumping
1761226667542706400,1.5267752675145865,7.592126277080178,3.31919790597409,-1.400255799293518,-0.3416597247123718,-0.7383778691291809,jumping
1761226667552719600,1.2565436375193295,7.654239326643943,3.132349930977821,-1.1838712692260742,-0.2665260732173919,-0.763992428779602,jumping
1761226667562732500,1.210198504321277,7.676155390375852,3.006085604020953,-0.9550725221633912,-0.1700485646724701,-0.7748937606811523,jumping
1761226667572745500,1.2604122956462205,7.696072389245033,2.9662428384542463,-0.7616234421730042,-0.0604818649590015,-0.7698628306388855,jumping
1761226667582758700,1.4560411045998334,7.624250431093573,3.217771375414729,-0.6571646928787231,0.0641057044267654,-0.7362818717956543,jumping
1761226667592771600,1.7626463627465068,7.679186136373877,3.756151983912289,-0.644770085811615,0.1864081919193267,-0.6335275173187256,jumping
1761226667602784500,2.2287642835877834,7.898863491043448,4.133312687405944,-0.6766406893730164,0.3312817811965942,-0.4737831354141235,jumping
1761226667612797400,2.615152103501558,7.846392714571952,4.118653170673549,-0.7224148511886597,0.4771439135074615,-0.3065485954284668,jumping
1761226667622810600,2.6259999529913065,7.493051570343971,3.8874364771187295,-0.7446849942207336,0.5763803720474243,-0.1535369902849197,jumping
1761226667632823600,2.195472108708322,6.935644482076167,3.5472412301898,-0.6895908713340759,0.7080148458480835,-0.0466198660433292,jumping
1761226667642836500,1.4707989671401678,6.112489777359366,2.7262670843824743,-0.5543493032455444,0.8322034478187561,0.0283397659659385,jumping
1761226667652849700,0.74606766564399,5.2632092822611325,1.791218815627694,-0.3348560929298401,0.8917943239212036,0.0925107598304748,jumping
1761226667662862600,0.3969346406303345,4.561671955478191,1.0469909326314926,-0.0775226503610611,0.8604484796524048,0.1162174642086029,jumping
1761226667672876500,0.0624528029121458,3.8291602292388673,0.4662891857549547,0.1514756381511688,0.8322778344154358,0.1002906933426857,jumping
1761226667682889500,-0.5555962394535541,2.925678188353777,0.0384136095464229,0.2666345238685608,0.6966606974601746,0.0560372620820999,jumping
1761226667692902700,-1.2064213238701225,2.202107308939099,-0.3129816613107919,0.3854261636734009,0.5511922240257263,-0.0128557849675416,jumping
1761226667702915600,-1.4416335168018937,1.5826882933944464,-1.0453495951652527,0.5849589109420776,0.6419811248779297,-0.1387375891208648,jumping
1761226667712928500,-1.8993223397329448,1.0102484711676836,-2.6979341393455862,0.8531120419502258,0.8700233101844788,-0.2727944850921631,jumping
1761226667722941700,-2.573806824417412,0.7959194917887449,-3.901142346388101,1.0901713371276855,1.070113182067871,-0.3205235600471496,jumping
1761226667732954600,-2.497610012182593,0.2409346622318029,-4.248117170454561,1.1696374416351318,0.961554765701294,-0.230010449886322,jumping
1761226667742967600,-1.5776815711483358,-1.1612731453716754,-4.093934032219648,1.1353821754455566,1.0434571504592896,-0.089443027973175,jumping
1761226667752980500,0.2691412774752825,-4.311416507193446,-4.909674076765776,0.9755526185035706,1.7018680572509766,0.1706407517194748,jumping
1761226667762993700,2.8698592704981563,-8.670041924807428,-6.796888337814807,0.6106128692626953,1.7976267337799072,0.6101491451263428,jumping
1761226667773006600,5.107594942179322,-11.936273672008516,-5.985173895522951,0.1673686057329177,0.7108747363090515,0.9530228972434998,jumping
1761226667783019500,6.414787547570467,-15.05533157521486,-3.209650612801313,-0.2484447807073593,-1.283760666847229,0.9316343665122986,jumping
1761226667793032700,4.375329007394612,-16.385553758537768,-1.9272814830213785,-0.4869012832641601,-2.89536452293396,0.9784075021743774,jumping
1761226667803045600,1.9152509996183216,-15.271457374882695,-4.481566737627983,-0.4134833514690399,-3.4991493225097656,1.0362615585327148,jumping
1761226667813058600,-0.4247602206669748,-13.177373802810909,-9.84706384345293,-0.0539331659674644,-2.79790472984314,0.8384835720062256,jumping
1761226667823071500,-4.238014878635108,-11.015406196558477,-14.871201334744692,0.3494870066642761,-1.1212280988693235,0.3920755088329315,jumping
1761226667833084700,-6.922012262564897,-9.35389804894924,-17.551338243854044,0.5479356050491333,0.8099938035011292,-0.0476344712078571,jumping
1761226667843097300,-6.726207366392016,-8.362291734409332,-16.69255283830762,0.3795838057994842,2.469274044036865,-0.3508819937705993,jumping
1761226667853110500,-4.836643327346444,-7.968841867154836,-12.301029359698294,-0.1531242877244949,3.750255107879639,-0.5075984001159668,jumping
1761226667863123700,-2.909661119532585,-7.48975194427669,-6.481302046963572,-0.9242141246795654,4.542078495025635,-0.5230914950370789,jumping
1761226667873136600,-1.1288308653198182,-7.104308857867121,-0.7901561059564352,-1.845942497253418,4.537384510040283,-0.4007703363895416,jumping
1761226667883149600,0.4555856401067227,-6.984927276161312,4.883793201056123,-2.7639617919921875,3.705855131149292,-0.2338299304246902,jumping
1761226667893162500,1.5843009892880917,-7.375841487458348,9.31609526477754,-3.4583919048309326,2.630537271499634,-0.1655392944812774,jumping
1761226667903175700,1.6511438438527286,-7.433844179093837,10.284842681777477,-3.721238374710083,1.583853006362915,-0.289902001619339,jumping
1761226667913188400,0.3654292761024087,-7.042879698914289,8.21130446960628,-3.6413724422454834,0.5737345814704895,-0.5468339323997498,jumping
1761226667923201500,-1.2571285978004336,-6.137706051680445,5.66620439197421,-3.362055540084839,-0.1805447190999984,-0.7704629898071289,jumping
1761226667933214700,-1.6069772237375377,-5.007209737366438,3.1990368643283844,-2.985851287841797,-0.5683028697967529,-0.9243438839912416,jumping
1761226667943227600,-1.7329342383109032,-3.367579659566283,0.8257248474657535,-2.5428788661956787,-0.5359817147254944,-0.9090584516525269,jumping
1761226667953240600,-1.204240253503993,-1.4659931742936372,-1.557483124989271,-2.012282371520996,-0.0625148192048072,-0.713442862033844,jumping
1761226667963253500,-0.3336241979755461,0.2214537166923284,-3.5833225973963736,-1.3635870218276978,0.4897310137748718,-0.429772287607193,jumping
1761226667973266700,0.07905987351574,1.638840388727188,-4.501690657246113,-0.6290695071220398,0.947586715221405,-0.1381066292524337,jumping
1761226667983279400,0.1079634671805892,2.68920751979351,-4.365566615054011,0.0945426747202873,1.2273880243301392,0.112397976219654,jumping
1761226667993292500,-0.2559673961907625,3.394312768191099,-3.223804225838184,0.7302586436271667,1.212757587432861,0.3610597252845764,jumping
1761226668003305700,-0.5493369963956997,3.876624575725197,-1.3317290807545183,1.2595655918121338,1.0476486682891846,0.4813104271888733,jumping
1761226668013318700,-1.1140607278198005,4.056701156890392,0.7556301514983177,1.658254623413086,0.8329452276229858,0.4662414789199829,jumping
1761226668023331600,-1.950821056301892,4.443104612764716,2.487068159902096,1.9136134386062624,0.6008338928222656,0.3975923359394073,jumping
1761226668033344500,-2.204998354205489,4.915765963900089,4.100015397959948,1.9829235076904297,0.356452077627182,0.3071617782115936,jumping
1761226668043357700,-2.0687800578586755,5.3496022020787,5.753267758399248,1.845978617668152,0.1864768415689468,0.1954890340566635,jumping
1761226668053370400,-1.8465194086976349,5.585507053449749,7.154713933980465,1.539421796798706,0.1137887984514236,0.0650205090641975,jumping
1761226668063383600,-1.6328886407159269,5.728073111388087,8.20069305922091,1.1441287994384766,0.0408096797764301,-0.0832480415701866,jumping
1761226668073397800,-1.4828741664677858,5.902553479981422,8.784518783336877,0.7436773180961609,0.0097337868064641,-0.2109671235084533,jumping
1761226668083410400,-1.260715077985078,6.0348418895334,8.852163748064637,0.3969862461090088,0.1054423451423645,-0.2990548014640808,jumping
1761226668093423600,-1.0894913731001317,6.27029899713695,8.323253855484724,0.145201951265335,0.2348594516515731,-0.3405612409114837,jumping
1761226668103436500,-1.093911966021359,6.630355713355541,7.413010065379738,0.0050684558227658,0.4029774367809295,-0.3337874710559845,jumping
1761226668113449500,-0.8188567152619362,6.841530028095841,6.4481923890441655,-0.0215240065008401,0.5133060812950134,-0.3122462332248688,jumping
1761226668123462700,-1.027173156353086,7.228233343699574,5.677416690862178,0.1487098485231399,0.6007745265960693,-0.3182510733604431,jumping
1761226668133475600,-1.791644055302441,7.749742604634165,4.29549939161539,0.334359347820282,0.7109955549240112,-0.2532025575637817,jumping
1761226668143488800,-1.444993348623812,7.651179354551434,3.654938219320774,0.4372572302818298,0.5893585681915283,-0.1349319964647293,jumping
1761226668153501400,-0.8105635186910629,7.741092849710583,4.891428810501099,0.4674393832683563,0.2023836970329284,-0.0083338357508182,jumping
1761226668163514600,-0.6510841737441718,7.401904149475693,6.244835470056533,0.4394305646419525,-0.2583552896976471,0.1270397752523422,jumping
1761226668173527600,-0.3710071492999792,7.081954402717948,6.482422575426101,0.3745671212673187,-0.6839417219161987,0.2551625967025757,jumping
1761226668183540500,-0.0396862232981249,6.770348705935477,5.696215499356389,0.2760249376296997,-1.003136157989502,0.3573530614376068,jumping
1761226668193553400,-0.0100064484958536,6.010971769124269,4.575505250519514,0.1771614700555801,-1.083588719367981,0.4160781800746918,jumping
1761226668203566600,0.2618073909232393,5.115197818398475,3.4087837766140696,0.0482788607478141,-0.87527996301651,0.382752925157547,jumping
1761226668213579800,0.3633889293812215,3.363120342069864,1.5468968490451571,-0.1407477855682373,-0.5544950366020203,0.1839782893657684,jumping
1761226668223592400,-0.4227373365372419,0.765620215114951,-0.5289338579773902,-0.4703927934169769,-0.5432171821594238,-0.1663700491189956,jumping
1761226668233605600,-1.9887636873357,-1.3849416155040264,-1.3550772231161594,-0.943759560585022,-0.663119375705719,-0.4097725749015808,jumping
1761226668243618600,-2.490085169635713,-2.1674626965373758,0.3313900091826915,-1.5531134605407717,-0.4763505756855011,-0.5277050733566284,jumping
1761226668253631500,-1.5249606193080545,-2.555048640194535,1.1966992635399103,-2.217367172241211,-0.303131639957428,-0.5726445913314819,jumping
1761226668263644400,-1.1696553354002537,-3.2171155418545005,1.1889221997976305,-2.831221103668213,-0.3950543701648712,-0.5400845408439636,jumping
1761226668273657600,0.3856437600808218,-4.268725950980186,1.0035703085780143,-3.315093755722046,-0.2979408800601959,-0.5091298222541809,jumping
1761226668283670500,1.833854572913796,-4.09642935616672,-1.6391022545337677,-3.640777826309204,-0.0293430238962173,-0.5713481903076172,jumping
1761226668293683500,1.6539884196288883,-3.3278111282795666,-5.48226002946496,-3.8428587913513184,0.0234520137310028,-0.7203658819198608,jumping
1761226668303696600,-0.1610006544963456,-1.8633336192458867,-7.335491356891393,-3.844587802886963,-0.0552847199141979,-0.7950354218482971,jumping
1761226668313709600,-1.579693787753582,0.0530213960915803,-7.508958749049902,-3.468179225921631,-0.3247768878936767,-0.7093561887741089,jumping
1761226668323722500,-0.6990969478935003,1.088341180151701,-7.261947397252917,-2.646156549453736,-0.6029923558235168,-0.5069323182106018,jumping
1761226668333735400,0.581335003278777,0.7237953358203172,-7.745905802950262,-1.6066685914993286,-0.647662341594696,-0.4073300361633301,jumping
1761226668343748600,1.1513258249182254,-0.8104454452693461,-9.477637825864552,-0.7612096667289734,-0.818781316280365,-0.47528737783432,jumping
1761226668353761500,0.6877366188369691,-2.957241201353073,-10.793363866323231,-0.4203040599822998,-1.2633618116378784,-0.4593230485916137,jumping
1761226668363774500,0.3561205458134412,-3.034734190878272,-9.53680079345107,-0.5632514357566833,-1.3653714656829834,-0.4229528605937958,jumping
1761226668373787600,-0.426685160847567,-2.0971090573728084,-7.506299758973717,-0.9114301800727844,-0.7266435027122498,-0.3024607896804809,jumping
1761226668383800600,-0.7407790577165781,-2.082719297492504,-7.389562554296851,-0.965069055557251,-0.0850659161806106,-0.226945012807846,jumping
1761226668393813500,-0.1984297465174458,-1.8372475763529537,-9.00421133557558,-0.6493316292762756,0.1259504407644271,-0.5034570097923279,jumping
1761226668403826400,-1.698311691610515,-2.267448088377714,-10.55981113103628,0.0526918098330497,0.3002057373523712,-0.6554567217826843,jumping
1761226668413839600,-1.5519428803883493,-2.9571716432482003,-11.759282781898976,0.7996885180473328,0.4341973662376404,-0.7310686707496643,jumping
1761226668423852500,-0.4780469531638547,-2.961702272415161,-11.828344043165444,1.3558636903762815,0.3695080578327179,-0.8058605194091797,jumping
1761226668433865500,-0.3420474506668746,-3.2048329833865163,-9.56652782319486,1.6421988010406494,0.2780370116233825,-0.8532056212425232,jumping
1761226668443878400,-0.3323308336967602,-3.2292987316012383,-6.44016456541121,1.6656650304794312,0.2728078365325928,-0.8896579742431641,jumping
1761226668453891600,-0.1631955889910459,-3.2783962322473523,-4.047228979668021,1.4865431785583496,0.318406194448471,-0.8541783094406128,jumping
1761226668463904500,-0.0597557093152776,-3.775035255819559,-2.184898984506726,1.2463001012802124,0.3556204736232757,-0.6883367896080017,jumping
1761226668473917400,0.0830508428480476,-3.5182138731479644,-0.50394320910573,0.9336628317832948,0.3393270075321197,-0.4865022301673889,jumping
1761226668483930600,0.5987590162884444,-3.001674801841378,0.9089210170686244,0.5105060338973999,0.3515487015247345,-0.3096161782741546,jumping
1761226668493943600,1.1783112278036771,-3.0354987455099818,1.9427642988353968,0.046586338430643,0.3350714743137359,-0.2415297925472259,jumping
1761226668503957500,1.3459263868026434,-2.6806220622777936,2.255712642398477,-0.3145011961460113,0.2459709048271179,-0.2405113875865936,jumping
1761226668513970700,1.3844745825141669,-2.0060937384516,2.2527602223336696,-0.5249196887016296,0.1235501915216445,-0.2700966894626617,jumping
1761226668523983400,1.120935216699168,-1.305718441185355,1.83029819560647,-0.5709651708602905,0.015150161460042,-0.3253818154335022,jumping
1761226668533996500,0.7863732994820922,-0.5751648632764816,1.2020756958812475,-0.5059766173362732,-0.1032380014657974,-0.3746092915534973,jumping
1761226668544009500,0.5254066336993127,0.2567787125736475,0.9762468328446148,-0.3570801913738251,-0.2328117936849594,-0.4082369208335876,jumping
1761226668554022700,0.3176386202711612,1.078169330227375,0.8773205946683883,-0.1597061157226562,-0.3820644021034241,-0.4472708702087402,jumping
1761226668564035300,0.2191033541738986,1.782691810300946,0.7661410241186618,0.0620332062244415,-0.5258969664573669,-0.4696955382823944,jumping
1761226668574048500,0.1790194733276963,2.436185529404878,0.7618500489264726,0.2818899154663086,-0.6309900879859924,-0.488519012928009,jumping
1761226668584061700,0.1104196190278977,2.9700059903800486,0.9818108967125416,0.4746328294277191,-0.693390429019928,-0.5095961093902588,jumping
1761226668594074400,0.0151852211069315,3.4462171429514883,1.5671113695561885,0.6048834919929504,-0.759070634841919,-0.5370381474494934,jumping
1761226668604087600,-0.0364744581773877,3.845653683400154,2.561917356920242,0.6829127669334412,-0.8200327754020691,-0.5719825625419617,jumping
1761226668614100500,-0.2329866258367895,4.162146567702293,3.571363279533386,0.7168374061584473,-0.780512809753418,-0.5524794459342957,jumping
1761226668624113700,0.2632593798298389,4.569930080735683,4.284019381701946,0.7356867790222168,-0.6841315627098083,-0.5257298946380615,jumping
1761226668634126300,0.2515884504541754,4.776918049702048,4.894973351240158,0.733418345451355,-0.5567389726638794,-0.4968103170394897,jumping
1761226668644139500,0.0167142573051154,4.852247139191627,5.272237807369232,0.7304850220680237,-0.4218843877315521,-0.4521411061286926,jumping
1761226668654152700,0.230272763768211,5.11684909273684,5.617345960780978,0.75422602891922,-0.2955722510814667,-0.3841844201087951,jumping
1761226668664165400,0.1117457530651241,5.495784696948528,5.733092400854826,0.8092191815376282,-0.208250880241394,-0.3137773275375366,jumping
1761226668674178600,0.1132080076374113,5.685234086614847,5.744951180952787,0.90420264005661,-0.1385141462087631,-0.2559832632541656,jumping
1761226668684191500,-0.0655680123232305,5.80009497602582,5.611536397719383,0.9674644470214844,-0.1208957284688949,-0.1937201470136642,jumping
1761226668694204700,0.0062128831654787,5.861902320641279,5.784368999105691,0.9469773173332214,-0.0876011550426483,-0.1443206369876861,jumping
1761226668704217300,0.1548456207316368,5.950677167159318,6.301707111835479,0.9178329110145568,-0.0445717573165893,-0.0879112184047699,jumping
1761226668714230500,0.3598719342362135,6.070004388329386,6.534242779034376,0.9050412178039552,-0.0080225355923175,-0.0253256037831306,jumping
1761226668724243700,0.4779391454078256,6.055546239387989,6.314434491461515,0.909270405769348,-0.0585995428264141,0.0391189791262149,jumping
1761226668734256400,0.4587141473907977,6.021648645961284,6.231138953137397,0.9028551578521729,-0.1354149580001831,0.1154952421784401,jumping
1761226668744269600,0.3658544427119195,5.894023552045225,6.196863758569956,0.9001087546348572,-0.1929971277713775,0.1771875768899917,jumping
1761226668754282500,0.0721955407042056,5.558507402843237,6.001296762806176,0.8874403834342957,-0.2207858860492706,0.2193792462348938,jumping
1761226668764295700,-0.2693380421563983,5.003105809178948,5.729481809142231,0.8261134028434753,-0.1638275682926178,0.2569862604141235,jumping
1761226668774308400,-0.5567866913471371,4.106621079835295,5.508439595860242,0.678338348865509,0.0376568026840686,0.2859148383140564,jumping
1761226668784321500,-0.7466926656745374,2.726998029005528,5.251797661408782,0.4898535907268524,0.3609132170677185,0.3418391346931457,jumping
1761226668794334500,-0.5901566807031631,1.2169535315394402,4.684598662444949,0.3292455375194549,0.699268639087677,0.4486095011234283,jumping
1761226668804347400,0.1300352237977087,0.0415554147034883,3.562047754177451,0.2820513248443603,0.965341091156006,0.6086688041687012,jumping
1761226668814360600,1.056254216343537,-0.7846990095943212,1.917864250856638,0.2841983735561371,1.199791669845581,0.7723405361175537,jumping
1761226668824373500,1.5781798760592936,-1.3081184880644083,0.2354337267279624,0.2411487102508545,1.4697591066360474,0.8873138427734375,jumping
1761226668834386700,1.305225981493294,-1.2068196755379437,-1.1077455533236265,0.1648803055286407,1.6914204359054563,0.8635461926460266,jumping
1761226668844399400,0.2921993508491665,-0.8938555498838424,-2.231551430088281,0.1844062507152557,1.7062140703201294,0.7678067684173584,jumping
1761226668854412500,-0.4863578680545091,-1.234294542440772,-3.167176329687237,0.437038242816925,1.518713355064392,0.5341609716415405,jumping
1761226668864425500,-0.376460738530755,-2.0059008462280032,-4.122490849140286,0.326758861541748,0.7233769297599792,0.2727091014385223,jumping
1761226668874438400,0.398954236824438,-2.773956179535389,-2.827501891762018,0.0288885664194822,-0.0998995974659919,0.0571384504437446,jumping
1761226668884451600,0.9983679176293312,-2.5746283699333667,-1.621788716161251,-0.5379806160926819,-0.6821355223655701,-0.1574543863534927,jumping
1761226668894464500,-0.2067236920069903,-2.6775235117405654,-0.2305833640873432,-1.177901268005371,-0.9555052518844604,-0.4178262948989868,jumping
1761226668904477700,-1.89942463106364,-3.4121453620016573,0.6826455793082714,-1.730858564376831,-0.9438989758491516,-0.6088411808013916,jumping
1761226668914491400,-2.356172373752296,-3.869428526741266,0.6780623431712388,-2.145845651626587,-0.9155301451683044,-0.7016757726669312,jumping
