timestamp,acc_x,acc_y,acc_z,gyr_x,gyr_y,gyr_z,activity
1761226592226337500,0.2727761999115348,0.990159622862935,0.3000102437958121,-0.2490257024765014,0.2512683272361755,0.23956860601902,jumping
1761226592236351500,0.190068763673678,0.919078838467598,0.4661033077940344,-0.3698064386844635,0.2262005060911178,0.1973196864128112,jumping
1761226592246364400,0.0563537553846836,1.1324199758529665,0.4813233810186386,-0.4664941132068634,0.2676864862442016,0.1912386566400528,jumping
1761226592256377300,0.245482753990218,1.2839262960940598,0.1495680456548929,-0.5466528534889221,0.3802929222583771,0.2535856366157532,jumping
1761226592266391600,0.483628223894909,1.3222995736300944,-0.3152838007733226,-0.5759844183921814,0.4910336434841156,0.3387861549854278,jumping
1761226592276404500,0.5622716255642474,1.4822013817727564,-0.6975950188979506,-0.5671184659004211,0.5690754652023315,0.394846498966217,jumping
1761226592286417400,0.4281062431592494,1.4961872370272873,-0.9743938984543083,-0.4996495842933655,0.50734543800354,0.429930716753006,jumping
1761226592296431600,0.2547678842078894,1.5116981098920106,-0.9576906009346248,-0.3461138308048248,0.4405393004417419,0.4397479295730591,jumping
1761226592306444300,0.1758433275096118,1.5000339755833147,-1.1017059808984395,-0.1286932826042175,0.3836017251014709,0.4569175541400909,jumping
1761226592316457500,0.0217357387289404,1.3543974241584538,-1.5631991645485162,0.1052190884947776,0.3061513900756836,0.4592092037200928,jumping
1761226592326471400,-0.1243503830943256,1.2779454681187867,-1.5819754689499734,0.3123483955860138,0.2050827443599701,0.43123260140419,jumping
1761226592336484400,-0.2713870836406946,0.8387661153465509,-1.1787193702131509,0.4588052332401275,0.1131448298692703,0.397942841053009,jumping
1761226592346497500,-0.2673842777401208,0.6303647724509239,-0.5891767297551036,0.5186374187469482,0.0677187591791153,0.3864968419075012,jumping
1761226592356510500,-0.0209435654379427,0.5733879167318344,0.0395464129686355,0.4740222692489624,0.0696932300925254,0.3945702016353607,jumping
1761226592366524400,0.1222753303859382,0.4283323800653218,0.7357213359355926,0.3491926789283752,0.13131944835186,0.4294716119766235,jumping
1761226592376537300,0.21337986196056,0.3531926756680011,1.326927525691688,0.1830210238695144,0.2257623374462127,0.4553724527359009,jumping
1761226592386550500,0.149232603155449,0.2225742451548576,1.6876576111271977,0.0108800530433654,0.3193607330322265,0.4591554999351501,jumping
1761226592396564500,0.0145182816307991,0.082435122102499,1.8580407735347744,-0.1569033563137054,0.4428134262561798,0.4656365513801574,jumping
1761226592406577400,0.0461475647993385,-0.0253302560895681,1.7981331250607966,-0.3417749106884002,0.5200956463813782,0.4692237377166748,jumping
1761226592416590300,0.2007636876240372,-0.1498001008450984,1.8540438128530976,-0.4868157207965851,0.4966160953044891,0.4325567781925201,jumping
1761226592426604500,0.1126530041031539,-0.3512555701255798,1.901209760914743,-0.5573791861534119,0.3967621326446533,0.3642831444740295,jumping
1761226592436617500,0.0134010411038994,-0.4657756832748651,1.7708605027318,-0.5978131294250488,0.2672299742698669,0.3148969411849975,jumping
1761226592446630400,0.078681066798605,-0.5193938762158156,1.6577771443873643,-0.6037372350692749,0.1867891997098922,0.2922331690788269,jumping
1761226592456644600,0.2494370080413296,-0.5091483765333891,1.3070517356157303,-0.5546407699584961,0.1606870293617248,0.3071466088294983,jumping
1761226592466657300,0.4341240786766633,-0.4180903875142335,0.7573112364530563,-0.4580780863761902,0.135026142001152,0.3624188899993896,jumping
1761226592476670500,0.6915045930683612,-0.2488824063658714,0.4310878162533044,-0.3691050708293915,0.0058279386721551,0.4160184562206268,jumping
1761226592486683400,0.93351492170766,-0.2046720932394266,0.5288385809093713,-0.2989467978477478,-0.170984148979187,0.4189407527446747,jumping
1761226592496697300,0.6980635131925345,-0.4061328232169151,0.6253726632520556,-0.2284675687551498,-0.2479732036590576,0.3892102837562561,jumping
1761226592506710500,0.1766439033027738,-0.322189050117135,0.1752542755752801,-0.1377062797546386,-0.1591460853815078,0.3399572968482971,jumping
1761226592516723500,-0.3017262904660776,-0.0782955380797386,-0.5901853222757577,0.0055970828980207,0.0391795150935649,0.3149627149105072,jumping
1761226592526737400,-0.5231893229760229,0.1346124685853719,-1.3890221628159285,0.1593473851680755,0.1551125943660736,0.289995402097702,jumping
1761226592536750600,-0.454436177810654,0.090642978477478,-1.4897949056416748,0.2620266377925873,0.1440932303667068,0.2186341285705566,jumping
1761226592546763500,-0.4609959747176617,-0.3171504714280366,-0.80023677046597,0.3069256842136383,0.0894302204251289,0.1183469146490097,jumping
1761226592556777500,-0.5010897559033707,-0.488508324086666,-0.0262739666804671,0.3105443716049194,0.0776526555418968,0.0576939508318901,jumping
1761226592566790400,-0.3879715454412624,-0.4149626108825207,0.3853744050875305,0.2836523056030273,0.0663503929972648,0.0211758129298686,jumping
1761226592576803300,-0.1355855514012277,-0.3230027045875787,0.674440353281796,0.2487638294696808,0.0011194583494216,0.0041544856503605,jumping
1761226592586817500,0.2063300165142864,-0.2941390136748552,1.0058467290773987,0.1750141233205795,-0.1001533716917038,0.0286332033574581,jumping
1761226592596830500,0.518712689018622,-0.2117149974882602,1.220504794280231,0.0361137576401233,-0.1540941148996353,0.0575713776051998,jumping
1761226592606843400,0.4733986159013584,-0.0428109677225351,1.3178721125766637,-0.0492756776511669,-0.0853258743882179,0.0734324529767036,jumping
1761226592616856300,0.1987925884804688,0.2337929737836122,0.6883499284297228,-0.0770702883601188,0.005185654386878,0.1159679219126701,jumping
1761226592626870300,0.199586643201299,0.4182078764140605,-0.0620996055603027,-0.0581812933087348,0.0705684274435043,0.1721782237291336,jumping
1761226592636883500,0.2710210998725146,0.2191220588743686,-0.5413847587496042,-0.025623882189393,0.1114609986543655,0.2079812288284301,jumping
1761226592646896400,0.0463397994358092,0.1156301202178001,-0.906154474964738,0.044753111898899,0.123551033437252,0.2094908058643341,jumping
1761226592656910300,-0.204164527309779,0.1708230151295661,-1.1354410772398114,0.1110098958015441,0.1083395928144455,0.1851830631494522,jumping
1761226592666923500,-0.3014797866254113,-0.0602191986411809,-1.167620760832727,0.186298668384552,0.080029085278511,0.1466636061668396,jumping
1761226592676936400,-0.2238353876644745,-0.361191857728362,-1.1163330566659568,0.2531370520591736,0.0388454273343086,0.101529948413372,jumping
1761226592686950400,-0.1550703693982213,-0.5539519793778658,-0.975252561110258,0.3089089393615722,-0.0138338543474674,0.009805254638195,jumping
1761226592696963600,-0.1787391768152825,-0.8961497983008623,-0.6386521238029003,0.3306792080402374,-0.072906494140625,-0.0677539855241775,jumping
1761226592706976500,-0.1036070346699096,-1.1478940238386393,-0.1918488520234823,0.2844046652317047,-0.1287511140108108,-0.1057932451367378,jumping
1761226592716990500,0.2045392241073772,-1.188835690557957,0.456370726069808,0.1615109592676162,-0.1486561149358749,-0.1086390987038612,jumping
1761226592727003400,0.4819446912547573,-1.2291565950304268,1.0199182167887688,-0.0357272066175937,-0.1646025329828262,-0.0767583400011062,jumping
1761226592737016300,0.6877196677021682,-1.1389110914379357,1.4743123820886015,-0.2843900024890899,-0.2023102343082428,-0.0320241563022136,jumping
1761226592747029500,0.7609857602473348,-1.1026871008902788,1.8242644684001803,-0.5291556119918823,-0.143059104681015,0.0089651457965374,jumping
1761226592757043500,0.5786206297535449,-1.061102460092306,1.5859999021604656,-0.7833561897277832,0.0683237239718437,0.053331546485424,jumping
1761226592767056400,0.3106974958963692,-0.973380337497592,0.9727291801124812,-1.0268234014511108,0.3452321588993072,0.0986927673220634,jumping
1761226592777069300,0.0772833288298919,-0.7611176429986953,0.5652390970677137,-1.1982274055480957,0.6146082282066345,0.123507834970951,jumping
1761226592787083300,-0.1279776336807757,-0.4677139578610658,0.1111108892276883,-1.2591580152511597,0.7807356119155884,0.1262862682342529,jumping
1761226592797096400,-0.2672548974731005,-0.1447451555430889,-0.4593438966616988,-1.1802918910980225,0.7676283121109009,0.1324078142642974,jumping
1761226592807109400,-0.1267962053438648,0.1974456491172313,-0.9553741406857968,-0.9874895215034484,0.5870847105979919,0.1625076681375503,jumping
1761226592817123300,0.2116574220821261,0.4957002814173698,-1.316280167210102,-0.7084946632385254,0.300995409488678,0.2185261994600296,jumping
1761226592827136500,0.5406189620088786,0.766556619182229,-1.6830144614964722,-0.3769816756248474,-0.0064016887918114,0.2727056741714477,jumping
1761226592837149400,0.5848260602649301,0.9450146592348814,-1.9956185216665268,-0.0534504577517509,-0.2533070743083954,0.3053096830844879,jumping
1761226592847163400,0.3607980361051857,0.9842501065582036,-2.2896143274784087,0.2204514294862747,-0.4238166809082031,0.2962220013141632,jumping
1761226592857176600,0.0286561856418848,0.9871937587946652,-2.2844974228560924,0.3869831562042236,-0.463431179523468,0.2534894347190857,jumping
1761226592867189500,-0.4299000677734613,0.7953729638218879,-2.052533710326254,0.4367443919181824,-0.3842780292034149,0.1947542577981948,jumping
1761226592877202400,-0.7944345139279961,0.625252544003725,-1.5444798510313034,0.3961274623870849,-0.2317976802587509,0.122460089623928,jumping
1761226592887216400,-0.9572698182392864,0.5908236201792955,-0.9684989951968191,0.2855449318885803,-0.0263533629477024,0.0545439757406711,jumping
1761226592897229300,-0.9147438780032098,0.5051221897572279,-0.3869815480232239,0.1446629166603088,0.1629555821418762,0.0024869004264473,jumping
1761226592907242500,-0.6454227139163762,0.4190215308845043,0.1121732577621936,-0.0119693940505385,0.3146092295646667,-0.0314162671566009,jumping
1761226592917256400,-0.3337723012093454,0.3384107015997171,0.5955021333843469,-0.1575532257556915,0.4254124164581299,-0.0514190047979354,jumping
1761226592927269400,-0.0666194850043859,0.3075742493093014,0.938646293246746,-0.2946022450923919,0.4615683853626251,-0.065774954855442,jumping
1761226592937282300,0.1808051146354526,0.3831400701642036,1.2530243773519991,-0.4214608669281006,0.4635772109031677,-0.0776571780443191,jumping
1761226592947296300,0.3327423736397177,0.4798725976884365,1.362756087180972,-0.4739530980587005,0.5315007567405701,-0.0699660778045654,jumping
1761226592957309400,0.4130193678602576,0.5665992795050144,0.8686357684314251,-0.4667204916477203,0.6164433360099792,-0.0425347238779068,jumping
1761226592967322400,0.5694243468631058,0.8171949195295571,0.4053735292822122,-0.3967421948909759,0.6535499691963196,-0.0384422428905963,jumping
1761226592977335600,0.5422866029601544,0.8186012791961431,0.0741062696963548,-0.260043740272522,0.6475149989128113,-0.0389583632349967,jumping
1761226592987349500,0.4754200752589851,0.7575514749497175,-0.2634112824559211,-0.1247280910611152,0.597672164440155,-0.0310289449989795,jumping
1761226592997362400,0.6006024521980434,0.7892559422463178,-0.1622334659606218,-0.0165222622454166,0.499636173248291,-0.0106536317616701,jumping
1761226593007375400,0.7788274872124195,0.7758668838411569,0.3187082222640514,0.0644232183694839,0.342703104019165,0.0263031367212533,jumping
1761226593017389600,1.005214349457994,0.7495113763570785,0.8122457726895809,0.1032068356871604,0.1880543977022171,0.0886647850275039,jumping
1761226593027402500,1.2528123420365154,0.6973749464064836,1.2090288760200143,0.0726351588964462,0.1156276613473892,0.1813018321990966,jumping
1761226593037415400,1.3768614771619438,0.5928969193220138,1.4242571423262358,-0.0087441243231296,0.1229707896709442,0.2744698524475097,jumping
1761226593047429400,1.2349988913178442,0.5835878237068652,1.577556191202998,-0.1025892049074173,0.1645629107952118,0.3357331454753876,jumping
1761226593057442300,0.9342659592706708,0.5628378811448812,1.6205530368864536,-0.2112959772348404,0.2232006639242172,0.3608342409133911,jumping
1761226593067455500,0.6023406741674989,0.3920505218505859,1.6363362969517707,-0.3232955038547516,0.3198552131652832,0.3678494691848755,jumping
1761226593077469400,0.2866068098054267,0.2688350610703229,1.6071847290083765,-0.4433470666408539,0.4531909227371216,0.3527722358703613,jumping
1761226593087482400,-0.0349073184585198,0.2760907312870025,1.5483756894260643,-0.5167704820632935,0.605323076248169,0.2949597239494324,jumping
1761226593097495600,-0.3950966846134513,0.142361475276947,1.2563193272441624,-0.5382201075553894,0.6989396214485168,0.214998573064804,jumping
1761226593107508500,-0.5645598095666616,-0.0573714079946279,0.928851167680323,-0.5323182940483093,0.7532516717910767,0.1439916342496872,jumping
1761226593117522400,-0.4597690267385915,-0.1396668293654918,0.8940069410532713,-0.5013590455055237,0.7671938538551331,0.0938626751303672,jumping
1761226593127535400,-0.2221256976697593,-0.0182961196690797,0.8610171101212502,-0.4507453441619873,0.7429273128509521,0.0725165531039238,jumping
1761226593137548500,0.088483170095086,0.2323936283797025,0.8482476449191569,-0.3839298188686371,0.7292120456695557,0.0875197350978851,jumping
1761226593147562500,0.4528263679938391,0.4096171582013368,0.7983581171125174,-0.3112611174583435,0.6998316645622253,0.1482215672731399,jumping
1761226593157575400,0.8526146079570055,0.5427145460486412,0.790283239467442,-0.2569819092750549,0.6311873197555542,0.2218076437711715,jumping
1761226593167588400,1.168884058766812,0.6975935575932264,1.0705202767789364,-0.1846793591976165,0.593619704246521,0.2954722642898559,jumping
1761226593177602600,1.2587542993061245,0.6902724209249019,1.0371125126957892,-0.1067211851477623,0.532505214214325,0.3732237815856933,jumping
1761226593187615700,1.216660320746526,0.7752396918535233,0.93268943066895,-0.0594472512602806,0.5074313879013062,0.4381725192070007,jumping
1761226593197628400,1.052790558820963,0.8910480912476777,1.1150164211094378,-0.0516108982264995,0.5299334526062012,0.4701533317565918,jumping
1761226593207641600,0.719964963877201,0.9100251789182424,1.3193085751205682,-0.058292768895626,0.5924476981163025,0.4829477071762085,jumping
1761226593217655600,0.4610382794894277,0.9516256018072368,1.3954004656761885,-0.0933506190776825,0.6141178607940674,0.4807873368263244,jumping
1761226593227668500,0.3507853222653269,0.9813263280659912,1.531568931531906,-0.1280831843614578,0.6190962791442871,0.487066388130188,jumping
1761226593237681700,0.2965505135296843,1.040797923210263,1.5486159279227256,-0.1334172189235687,0.6705586314201355,0.4965720176696777,jumping
1761226593247695600,0.1837089280518703,1.2546364887237549,1.1055647021532058,-0.1056088805198669,0.7909373641014099,0.514752209186554,jumping
1761226593257708500,-0.0334696868708357,1.633843895614147,0.475906616666913,-0.0744112804532051,0.9528437256813048,0.5124208927154541,jumping
1761226593267721700,-0.3086050536617636,1.9770991146355863,0.0723649789869785,-0.030120700597763,1.1437170505523682,0.501820981502533,jumping
1761226593277735400,-0.5473194094955921,2.190602749106288,-0.1303223701760172,0.0667752176523208,1.2115075588226318,0.5229353308677673,jumping
1761226593287748600,-0.4865419193845242,2.525408119690418,-0.00693769030869,0.2100966870784759,1.468610405921936,0.5060786008834839,jumping
1761226593297761800,-0.1871661010347306,2.2960861538410184,-0.8273556635379791,0.4127227663993835,1.369907021522522,0.5505408644676208,jumping
1761226593307774500,0.2897378926390782,1.6275129390269516,-1.4112208428815007,0.6193982362747192,1.1830953359603882,0.5390825271606445,jumping
1761226593317788700,0.4812239392321557,1.3483727570414543,-1.0444093917056918,0.8105795979499817,1.0848057270050049,0.4713927209377289,jumping
1761226593327801300,0.2476119115060195,0.5996949088990688,-1.474412043070793,0.9735141396522522,1.0967864990234375,0.3474414944648742,jumping
1761226593337814500,0.1237257849225774,-1.113892385515571,-1.990328598564863,1.0587594509124756,1.1762133836746216,0.2267515361309051,jumping
1761226593347828700,0.5308551448961719,-2.75129426587224,-2.228294181858003,1.044060230255127,1.2176979780197144,0.1812075823545456,jumping
1761226593357841400,0.932673794708401,-3.5318653818815946,-1.6223042644679546,0.8392291069030762,1.2265719175338743,0.1642557680606842,jumping
1761226593367854600,1.009137879577279,-3.648616615083813,-0.3717009767830371,0.4611032605171203,1.200747013092041,0.153828889131546,jumping
1761226593377868500,1.036042910702899,-3.6578853786885737,0.8146502034828066,-0.0426751859486103,1.127269625663757,0.1783600598573684,jumping
1761226593387881500,1.1337838846173136,-3.901386676537991,1.4611346283465625,-0.5847830176353455,1.1038830280303955,0.2379190623760223,jumping
1761226593397894700,1.2371601610049603,-4.283201051056385,1.413109725368023,-1.05463445186615,1.2010819911956787,0.3086853623390198,jumping
1761226593407907600,1.18993415331915,-4.227696021455526,0.484897732374072,-1.3975601196289062,1.4684922695159912,0.4129448235034942,jumping
1761226593417921500,1.088396709731221,-3.710497024935484,-0.9426406235799192,-1.6047288179397583,1.743156671524048,0.5341722369194031,jumping
1761226593427934700,1.0251188541717826,-3.034950463977456,-2.341522209370136,-1.6478615999221802,1.9165239334106443,0.6520823240280151,jumping
1761226593437947400,0.8362658960286528,-2.325473576366901,-3.4627333934664724,-1.474229097366333,1.8442941904067995,0.7363469004631042,jumping
1761226593447961600,0.576253608361259,-1.758838641026616,-4.265507573455572,-1.05970561504364,1.6722524166107178,0.8231903910636902,jumping
1761226593457974800,0.5457488722432404,-1.3855430885285138,-5.068635973709822,-0.4812091886997223,1.4553240537643433,0.922875165939331,jumping
1761226593467987500,0.780013993583247,-1.0312444974452255,-5.905388411146402,0.1870753914117813,1.2534040212631226,1.0736510753631592,jumping
1761226593478001700,1.159257713896036,-0.7506804201364516,-6.074795714259147,0.7978305816650391,1.032140851020813,1.2116358280181885,jumping
1761226593488014300,1.4349135608971118,-0.7038882738232612,-5.2605350946158165,1.2309560775756836,0.7904377579689026,1.2387114763259888,jumping
1761226593498027500,1.2855769859105348,-1.259542965465784,-3.504711709757149,1.4060790538787842,0.5242244601249695,1.1021685600280762,jumping
1761226593508040700,0.701033834240213,-2.248573876559734,-1.0481082462236284,1.3003119230270386,0.3803148567676544,0.836060106754303,jumping
1761226593518054400,0.0744780621508136,-3.2096926983773706,1.30208183824867,0.970020592212677,0.5174234509468079,0.5163215398788452,jumping
1761226593528067600,-0.1774610283719375,-3.716561439540982,2.732623175410926,0.5467630624771118,0.666504979133606,0.2814087569713592,jumping
1761226593538080500,0.0514947710461914,-3.550248010790348,3.732979782639444,0.0269821751862764,0.733154296875,0.1089262068271637,jumping
1761226593548094500,0.577149826548621,-3.0948043364375826,4.6683585985228415,-0.5262919068336487,0.7749223113059998,-0.0062078293412923,jumping
1761226593558107600,1.1118340647462754,-2.491619831857085,5.041626386231184,-1.0131032466888428,0.7949281930923462,-0.0314708389341831,jumping
1761226593568120600,1.5217571470916271,-1.5319728361576794,4.752909397605062,-1.3161691427230835,0.8121728301048279,0.0512971431016922,jumping
1761226593578134500,1.854350832975656,-0.3337076384752989,3.647815235573053,-1.3682703971862793,0.8515104055404663,0.1946287304162979,jumping
1761226593588147700,1.8987441014535724,0.645941111767292,1.7099498146951198,-1.1976639032363892,0.8677482008934021,0.3457082509994507,jumping
1761226593598160400,1.6308295162290334,1.3821131140798328,-0.1267380819484591,-0.9034761786460876,0.8128588795661926,0.4508344531059265,jumping
1761226593608173600,1.1081642171271144,1.9342045602828264,-1.1536465960159896,-0.5353878140449524,0.7200264930725098,0.4996625185012817,jumping
1761226593618187800,0.4041276574069634,2.411108371293545,-1.534084713745117,-0.1492689251899719,0.6036825776100159,0.4878982901573181,jumping
1761226593628200400,-0.1758394185194745,2.672220729157329,-1.4825579401254654,0.1865835487842559,0.4874166846275329,0.4332030415534973,jumping
1761226593638213600,-0.4300628205871209,2.741336350959539,-1.083191542303562,0.4290928542613983,0.4175198972225189,0.3306164741516113,jumping
1761226593648227300,-0.5282053610397502,2.5802421181619164,-0.4110854771882295,0.6142948865890503,0.5141516327857971,0.2222279906272888,jumping
1761226593658240500,-0.3987905341627076,2.5502824487060307,-0.2338911734610795,0.7539470791816711,0.7511441707611084,0.1351146548986435,jumping
1761226593668253700,-0.1320978554159402,2.7130320474952456,-0.2760702730208635,0.7787129282951355,0.9360822439193726,0.1525172442197799,jumping
1761226593678267400,0.4331267382023855,3.4362872850894925,0.4837006315439939,0.700448751449585,1.0372116565704346,0.3033317923545837,jumping
1761226593688280600,1.6784510991036892,4.35200921434462,1.6662828146651387,0.5688759088516235,1.2889962196350098,0.5999435782432556,jumping
1761226593698293800,2.907776036438346,4.695165064644813,1.6441922711491583,0.4298461079597473,1.4911208152770996,0.9623500108718872,jumping
1761226593708306400,3.63453402145654,4.902161801439523,1.6304896167501806,0.390794962644577,1.663657546043396,1.2546310424804688,jumping
1761226593718320600,3.2569094998434185,4.65380546477437,1.220623744484782,0.4756824076175689,1.5340659618377686,1.3203649520874023,jumping
1761226593728333600,2.017311882558465,3.66678881611228,0.9526289336308836,0.6846237182617188,0.9695932865142822,1.124398946762085,jumping
1761226593738346500,0.0891554068008437,2.05732532851696,1.440064660049975,0.9375798106193542,0.1988912522792816,0.8439622521400452,jumping
1761226593748360700,-0.7805485388513654,1.0716431433290243,2.041132026346028,1.1720600128173828,-0.4567936360836029,0.6382266283035278,jumping
1761226593758373400,-0.4764689267247915,0.8148854735434055,1.985845315670967,1.2962889671325684,-0.8335025906562805,0.5319526791572571,jumping
1761226593768386600,0.2827537693727761,0.6552870322614908,1.7100971142113208,1.2220263481140137,-0.8893318176269531,0.4458794891834259,jumping
1761226593778400800,0.5654431682724506,0.3053068888992071,1.8953505134925248,0.9530473351478576,-0.6436222195625305,0.3822264671325683,jumping
1761226593788413400,0.4496640315053984,0.1943283938795328,2.0957433219775554,0.5354482531547546,-0.2152163684368133,0.337639719247818,jumping
1761226593798426600,0.4213667423037812,0.0508387913554906,2.255328611516952,0.0596337914466857,0.2542640566825866,0.3159424066543579,jumping
1761226593808439600,0.4165593054894357,-0.0640115766614675,2.1577900283068416,-0.3810871243476867,0.5675713419914246,0.3168103098869324,jumping
1761226593818453500,0.4366687947234138,0.0807926155924797,1.8884446796268224,-0.7038329243659973,0.7084000706672668,0.299240380525589,jumping
1761226593828466700,0.3517530347863212,0.1708697768807411,1.2630407444536684,-0.8832918405532837,0.6613055467605591,0.2343859821557998,jumping
1761226593838479600,-0.0703394188429694,0.1123135430157184,0.3939312210306525,-0.8944454193115234,0.4917532503604889,0.1703457534313202,jumping
1761226593848493600,-0.4381969906713813,0.2990641951173544,-0.7558864643469453,-0.7305981516838074,0.3435524404048919,0.1835495382547378,jumping
1761226593858506800,-0.2524419802772812,0.6546791294962168,-2.423373978626728,-0.4388638138771057,0.2195436656475067,0.2899819612503052,jumping
1761226593868519400,0.2647280458766035,0.9464560902148484,-3.995616281330585,-0.1205779761075973,0.1629762649536132,0.4459159076213836,jumping
1761226593878533600,0.5806492860369384,0.8056646407335997,-4.752271684223413,0.1607828438282013,0.1576611250638961,0.5672119855880737,jumping
1761226593888546600,0.2869089162908494,0.4476274476438761,-4.762898292177916,0.4087305963039398,0.2361059188842773,0.6418119668960571,jumping
1761226593898559500,-0.2518570017298683,-0.0945972690612077,-4.584228070679306,0.628354012966156,0.3583194315433502,0.6722338199615479,jumping
1761226593908572700,-0.5043902222208678,-0.752625124463439,-4.341722798129916,0.8485908508300781,0.525378942489624,0.6316937804222107,jumping
1761226593918586400,-0.6233182149402797,-1.0486825389802454,-4.024572911223769,0.9793261885643004,0.7179587483406067,0.6632580757141113,jumping
1761226593928599600,0.2184892043309286,-1.890752372047305,-3.4403573110073804,1.0214037895202637,0.664232611656189,0.6762356162071228,jumping
1761226593938612500,1.2434674444556235,-2.348943299281597,-1.9033122861519456,1.0075803995132446,0.4154366850852966,0.6970367431640625,jumping
1761226593948626400,1.497447904612869,-2.848742248189449,-0.5632034995868802,0.9361650347709656,-0.1310184001922607,0.7464466691017151,jumping
1761226593958639600,1.8726593737348916,-3.4215807143449783,0.4906213707178831,0.8462077379226685,-0.6855103969573975,0.8315937519073486,jumping
1761226593968652500,2.244184409429133,-3.8267765489727257,0.3852256442666053,0.7804557085037231,-0.9282519221305848,0.9256824254989624,jumping
1761226593978666500,2.459128890357912,-4.319902595987916,-1.332496557995677,0.6518300771713257,-0.8114147782325745,1.0369961261749268,jumping
1761226593988679700,2.4321358156226576,-4.759360765701532,-3.023883418779075,0.4060574173927307,-0.4104449450969696,1.0932360887527466,jumping
1761226593998692600,2.0260031385362147,-5.116097982108593,-3.8369685649022456,0.0820045098662376,0.0018251847941428,1.1007765531539917,jumping
1761226594008705500,1.574991893672943,-5.252894808995723,-3.925400589331984,-0.1949300318956375,0.2633666098117828,1.107140064239502,jumping
1761226594018719700,1.4741466701328754,-5.124150355660915,-3.845064777596295,-0.3091119825839996,0.4454719722270965,1.1063038110733032,jumping
1761226594028732400,1.4050205269366502,-4.799262567979097,-4.462493496106565,-0.2841673493385315,0.55756676197052,1.077976942062378,jumping
1761226594038745600,1.2289391528874636,-4.276640377366543,-5.0376715111255645,-0.209427610039711,0.6118004322052002,1.0519185066223145,jumping
1761226594048759600,1.277744538719207,-3.4237849463909864,-4.814838030512631,-0.1145738810300827,0.6116893291473389,1.0643516778945925,jumping
1761226594058772500,1.645318790961057,-2.610911397191882,-4.16167690436393,-0.0008909876924008,0.3466728031635284,1.1584733724594116,jumping
1761226594068785700,2.372566605322808,-2.0491583886742597,-2.796216234399378,0.1849448382854461,0.020235801115632,1.3090492486953735,jumping
1761226594078798600,2.85549230697155,-1.7966344109356402,-1.698541116452217,0.3693780899047851,-0.1495279371738433,1.3965908288955688,jumping
1761226594088812500,2.2730799567848443,-1.6378730049997567,-1.2627560822933912,0.4217765927314758,-0.1660638451576233,1.363190531730652,jumping
1761226594098825500,0.9563802489884196,-1.4131003730177878,-0.3877250598669052,0.3749379813671112,-0.1148129031062126,1.201495885848999,jumping
1761226594108838700,-0.179088008519262,-1.0051140308886766,0.6816337719172239,0.221666544675827,0.2930252850055694,1.055185317993164,jumping
1761226594118852600,-0.8929393118217587,-0.6694336310356855,1.0479103855639695,-0.0887730792164802,0.4983965456485748,0.8481194972991943,jumping
1761226594128865500,-1.2099866151362657,0.172091427630186,2.522242349135876,-0.4139944911003113,0.6836625337600708,0.6261351704597473,jumping
1761226594138878500,-1.1722019511431454,0.9225058903068304,3.379765479661524,-0.6775537133216858,1.0158010721206665,0.4455142617225647,jumping
1761226594148892700,-0.8027925924286246,1.7490262720644474,2.842522350761294,-0.8851158618927002,1.3932702541351318,0.3157090246677398,jumping
1761226594158905600,-0.2909786499477922,2.859248444634676,2.3166426196575163,-1.0035200119018557,1.7019444704055786,0.1882274895906448,jumping
1761226594168918500,0.0229185187727212,3.9009307494640346,2.0521756906688213,-1.0090584754943848,1.9530800580978396,0.0645321458578109,jumping
1761226594178931000,0.1493992649592459,4.853868018391728,1.6276567314118149,-0.924616277217865,2.083967447280884,-0.0224070139229297,jumping
1761226594188945200,0.560282205312699,5.873476438578963,1.4152142964318395,-0.7445462942123413,2.0998613834381104,-0.046756200492382,jumping
1761226594198957800,1.2366568876579402,6.7064201313823455,1.324374918599427,-0.4952786862850189,1.9942981004714968,-0.0239464901387691,jumping
1761226594208971000,1.8602678019344805,7.293805009284615,1.290632515734434,-0.1919855028390884,1.8445193767547607,0.046514980494976,jumping
1761226594218985000,2.2356267167031763,7.930694215068221,1.256189563384652,0.1485784649848938,1.7335832118988037,0.1167502552270889,jumping
1761226594228998000,2.146610754905641,8.361410859921573,1.0608926167339086,0.4842535257339477,1.6281535625457764,0.1330891698598861,jumping
1761226594239011000,1.5492378592133522,8.450655662038923,1.0356424401432276,0.7979310154914856,1.5096027851104736,0.1110871955752372,jumping
1761226594249024800,0.9486096149869264,8.561556415647267,1.237131227171421,1.0755538940429688,1.4571231603622437,0.0800739601254463,jumping
1761226594259038000,0.7374760706484317,8.739461497992277,1.3158581424057485,1.264424443244934,1.3849080801010132,0.062228113412857,jumping
1761226594269051000,0.7472565831676125,8.930294450971484,1.7220353892862796,1.3354299068450928,1.2153873443603516,0.0346712097525596,jumping
1761226594279064000,0.6695309539303184,9.182688664850591,2.588558695608377,1.2997571229934692,1.0527675151824951,-0.0382093861699104,jumping
1761226594289078000,0.4435486538976431,9.25483152551949,3.3222967487722634,1.2015796899795532,0.9392668604850768,-0.1055973842740058,jumping
1761226594299091000,0.4283267540421336,9.162988523602484,3.478945400337875,1.056408405303955,0.8563794493675232,-0.1198759227991104,jumping
1761226594309103900,0.6395201388090849,9.265997062656282,3.291812178659439,0.8909353017807007,0.9139792919158936,-0.0830096155405044,jumping
1761226594319118000,0.6014807694025337,9.604688334763049,2.3624390329316256,0.7355605959892273,1.0827922821044922,-0.0377151034772396,jumping
1761226594329131000,0.3606272095829248,9.850574481922388,1.1107798064529897,0.602803647518158,1.3869831562042236,-0.0697015672922134,jumping
1761226594339144000,-0.1127844484630972,9.746993695938588,-0.1956935447528958,0.4615394473075866,1.6227859258651731,-0.135890707373619,jumping
1761226594349156900,-1.106707734708488,9.374484325382111,-0.9389645654156804,0.3536594808101654,1.791710615158081,-0.2600305080413818,jumping
1761226594359170800,-2.0827461854994294,8.66586376233995,-1.6148364128053188,0.3047388195991516,1.8134342432022093,-0.3972014188766479,jumping
1761226594369184000,-2.807892059145868,7.5569012344419955,-2.3768168101131915,0.3285411894321441,1.612453579902649,-0.5122486352920532,jumping
1761226594379197000,-3.0541157676965,6.332882586821913,-3.0027479840308424,0.4370039999485016,1.4863444566726685,-0.5711016058921814,jumping
1761226594389211000,-2.6371938394397496,4.861677815359831,-4.27955480350852,0.507831871509552,1.4728014469146729,-0.5127880573272705,jumping
1761226594399224000,-2.0385645139455795,3.0470564968347547,-4.952035547155141,0.3562335669994354,1.5284457206726074,-0.430493950843811,jumping
1761226594409237000,-2.155375222250074,0.3117588415175676,-4.107785739700496,-0.181117832660675,1.7369767427444458,-0.4537228941917419,jumping
1761226594419251000,-1.640330627284944,-4.228690877711773,-1.4874530186906456,-1.1996245384216309,1.553741693496704,-0.6804178357124329,jumping
1761226594429264000,-0.5589653505604714,-9.839408944785594,2.1836633052319288,-2.486133813858032,1.106005072593689,-0.8988587856292725,jumping
1761226594439277000,0.4623214146351441,-13.599764517867564,4.902590255984664,-3.567326545715332,0.8354459404945374,-0.6889646649360657,jumping
1761226594449291000,2.400942804979533,-12.547040594542024,3.701134445567429,-4.212008476257324,0.6589590907096863,-0.0180469453334808,jumping
1761226594459304000,4.368021606990695,-9.146443046993015,-0.2868225531816482,-4.166484355926514,0.8301215171813965,0.8598081469535828,jumping
1761226594469316900,5.311373301449418,-7.768347936382889,-5.11347464786768,-3.5750503540039062,1.1111536026000977,1.1743053197860718,jumping
1761226594479329800,3.268925516329705,-8.980965484544635,-9.426042663183807,-2.74950647354126,0.6724252700805664,1.1302344799041748,jumping
1761226594489344000,0.5202469128485768,-10.169109685707092,-9.354530501633882,-1.909381985664368,0.0441867299377918,1.0912786722183228,jumping
1761226594499357000,0.7170955459207295,-10.763121872794628,-7.851788436135649,-1.1161160469055176,-0.1283280402421951,1.01669442653656,jumping
1761226594509369900,2.2148580694407225,-10.158009615021944,-6.643080754894018,-0.6557207703590393,-0.2360425293445587,0.9284180402755736,jumping
1761226594519383800,2.479585110670328,-8.696919410338998,-3.89898136896193,-0.5293723940849304,-0.6357313394546509,0.9353603720664978,jumping
1761226594529397000,2.700360489709676,-7.368929516112804,0.7382242586672305,-0.527582585811615,-0.8298566937446594,0.9481693506240844,jumping
1761226594539410000,3.5571330941289663,-6.753569420570135,2.920125814923644,-0.5287514328956604,-0.600952684879303,0.9143913984298706,jumping
1761226594549423000,2.520193892173469,-5.291329461330175,2.503897129628062,-0.6725562810897827,-0.2148923277854919,0.9205409288406372,jumping
1761226594559437000,0.4107062686122953,-1.816691110536456,2.944225067913532,-0.9568518996238708,-0.0242030713707208,0.8695096969604492,jumping
1761226594569450000,-0.0918645561616867,-0.4083440695255994,3.592167582631111,-1.3090442419052124,-0.1696151345968246,0.68437260389328,jumping
1761226594579463000,-1.3050253443546591,0.5438619625180959,4.633716031947731,-1.5842150449752808,-0.3836565911769867,0.4809973239898681,jumping
1761226594589476900,-2.152771031101048,1.3622779482752083,4.860675360319018,-1.654089093208313,-0.4034020602703094,0.5032006502151489,jumping
1761226594599490000,-1.423846223437786,1.908913467159867,4.1103380545318124,-1.447647213935852,-0.1408585906028747,0.7386589646339417,jumping
1761226594609503000,0.971967767285928,1.5638900694221258,3.1158862874329087,-0.9824498891830444,0.1274494975805282,0.9754778146743774,jumping
1761226594619517000,2.9119731958672403,0.5721773718982934,2.652244693577289,-0.4821367263793945,0.0346865430474281,1.0572084188461304,jumping
1761226594629529900,2.465349956829846,0.3073252429842948,3.569270691168308,-0.1406473666429519,-0.3875486850738525,1.0151807069778442,jumping
1761226594639543000,0.6227673030592501,0.6823240922689437,3.918954481932521,0.0560931116342544,-0.6781365871429443,0.9671974778175354,jumping
1761226594649556000,-0.8186373734228313,1.4021645529836415,3.654201137217879,0.2643263638019562,-0.3972342908382416,0.8049212098121643,jumping
1761226594659570000,-1.1982780571639535,1.8551468056589364,1.977126587164402,0.5258826613426208,0.2491458058357238,0.6474583745002747,jumping
1761226594669582800,-0.8195829837098717,2.790792163524032,0.7448655963778495,0.7617927193641663,1.047823429107666,0.6413449048995972,jumping
1761226594679596000,0.2894752596475183,4.083312100440264,0.4705640865951776,0.859764575958252,1.697891354560852,0.7437282800674438,jumping
1761226594689610000,1.4115170493490994,4.767706569242477,0.974402081760764,0.7730309963226318,1.957713842391968,0.7963926792144775,jumping
1761226594699623000,1.401316996243596,4.654999642995,2.163953811633587,0.6273651123046875,1.7320427894592283,0.7255228161811829,jumping
1761226594709636000,0.7761816488787532,4.164101793423295,3.4854303784430023,0.564125657081604,1.275687575340271,0.6553674340248108,jumping
1761226594719648800,0.7575774861738085,3.330083749386668,3.777950851005316,0.6445778608322144,1.0391671657562256,0.8015070557594299,jumping
1761226594729663000,1.540943347468227,2.9387668025076388,2.360322186908126,0.7802612781524658,1.158533215522766,1.0283476114273071,jumping
1761226594739676000,1.4948713321231304,2.4128753809660672,0.1055225677013397,0.8637953400611877,1.4738978147506714,1.034786581993103,jumping
1761226594749688800,-0.8241704576306045,1.2126245624244212,-1.524936946171522,0.8283880352973938,1.6892248392105105,0.7582045197486877,jumping
1761226594759703000,-4.321879449018836,-0.325111659565568,-2.073357010385394,0.6790523529052734,1.8468434810638428,0.3859173059463501,jumping
1761226594769716000,-7.01331808886528,-1.435521463662386,-2.587376792347431,0.5071886777877808,1.925728678703308,0.0349595099687576,jumping
1761226594779729000,-8.219075103607773,-1.9251421329051253,-3.5162235761135814,0.465636670589447,2.0293996334075928,-0.252967357635498,jumping
1761226594789742800,-8.031744605791568,-1.7827952706754209,-4.320609282952547,0.6423108577728271,2.200833797454834,-0.4023002684116363,jumping
1761226594799756000,-5.900608775654435,-1.7459259679615498,-5.6051990113914005,0.932572603225708,2.3994665145874023,-0.3987896740436554,jumping
1761226594809769000,-3.227334738051891,-2.248895948120952,-6.785775407648086,1.1426515579223633,2.5937659740448,-0.3243992626667022,jumping
1761226594819782100,-2.207298886232823,-2.926761891937256,-7.585160529720783,1.2057324647903442,2.7404465675354004,-0.3642321527004242,jumping
1761226594829795800,-2.578783151525259,-4.253114540350437,-8.580347625356913,1.2255908250808716,2.9416792392730717,-0.6173370480537415,jumping
1761226594839809000,-2.5493770242989062,-6.89326664507389,-9.7159345408082,1.2327723503112793,2.8616607189178467,-0.8176184296607971,jumping
1761226594849822000,-1.0744061052363365,-8.332056755143403,-9.282516820302606,1.1345523595809937,2.45261812210083,-0.8521074652671814,jumping
1761226594859836000,1.6274781599745154,-8.656381648245453,-6.795160491108894,0.776333749294281,1.956447958946228,-0.7671763300895691,jumping
1761226594869849000,3.825149532292783,-8.587041570037602,-3.5784079373478885,0.145197719335556,1.5829004049301147,-0.5423126816749573,jumping
1761226594879861800,5.14616871072352,-8.177686277642845,-0.5800766007155179,-0.6867663860321045,1.5606834888458252,-0.2363274991512298,jumping
1761226594889876000,6.2169561140060425,-7.571440631926059,0.5613596252858638,-1.504716873168945,2.067600011825561,0.1645105630159378,jumping
1761226594899889000,6.7917498058825725,-6.090668406173586,-0.0103559743195772,-1.784016489982605,2.627194881439209,0.6734156012535095,jumping
1761226594909901800,7.20772480867803,-4.234752954229712,-1.807297843769193,-1.8594571352005005,2.509817361831665,0.7961190938949585,jumping
1761226594919915000,6.599583558472991,-3.713290455046296,-2.0396330199599264,-1.788148283958435,1.8280746936798096,0.7096707224845886,jumping
1761226594929929000,4.89446540171802,-4.316198480772972,1.249300388392806,-1.213663935661316,0.5556925535202026,0.8092279434204102,jumping
1761226594939942000,5.0743514287471765,-1.4259376427590846,2.5085937630116937,-0.6130015850067139,-0.6916409730911255,0.93267560005188,jumping
1761226594949955000,4.856581953525543,-0.4208639438807964,3.3105987121939657,-0.1712632030248642,-1.6133571863174438,1.0648393630981443,jumping
1761226594959969000,3.5765392208665605,1.1109066477030516,3.828327870067954,0.1816807389259338,-2.2511537075042725,1.3080261945724487,jumping
1761226594969982000,2.900260253980756,3.090513945767283,4.397250039562583,0.2513674795627594,-2.49372673034668,1.62842059135437,jumping
1761226594979995100,2.4375011420480908,4.030782871779799,5.191759080031514,0.1767132133245468,-2.0944995880126958,1.935275077819824,jumping
1761226594990007800,1.3775797084338963,5.329506339511275,4.964453714701533,0.0160216614603996,-1.4133342504501345,2.1939077377319336,jumping
1761226595000022000,0.3261324539806693,6.210127729290724,4.090033517649769,-0.0285226367413997,-0.8739551901817322,2.281637191772461,jumping
1761226595010035000,-0.7660466968987136,6.037964989989995,4.0262575033098456,-0.0146407913416624,-0.7246606945991516,2.191197872161865,jumping
1761226595020048000,-1.927581781142205,5.42382829876244,5.079823722678422,0.0192679073661565,-0.6931217312812805,1.938374161720276,jumping
1761226595030062000,-2.8097967237234114,4.631380282476544,6.215012578722834,0.0939292907714843,-0.6132975816726685,1.613662838935852,jumping
1761226595040074800,-3.343493266057968,4.583545933634042,6.033989072096348,0.2126223891973495,-0.5570909976959229,1.268569827079773,jumping
1761226595050088000,-3.298271145540476,4.625650214391946,5.496112029206753,0.3387410938739776,-0.4634467959403991,0.940893530845642,jumping
1761226595060102000,-3.162461576125025,4.845059273514151,5.177825831747055,0.538470447063446,-0.2479485869407653,0.6731680631637573,jumping
1761226595070114800,-2.57824013068974,4.999114109194278,4.310054571190476,0.6062982082366943,-0.0643285885453224,0.4526797533035278,jumping
1761226595080128000,-1.5999306662268935,5.148109323397279,4.182613601669669,0.6757140159606934,0.1188827827572822,0.2798531055450439,jumping
1761226595090141200,-0.8572393451482057,5.508641840434074,4.591170437163115,0.7737908363342285,0.2994439303874969,0.1573057770729065,jumping
1761226595100155000,0.0596824614159762,5.981717617589235,4.402361683487892,0.6535394787788391,0.4681799411773681,-0.1458479762077331,jumping
1761226595110168000,-1.5747317814320323,6.611555735817551,5.089931275194883,0.4353145956993103,0.0085199754685163,-0.6220983266830444,jumping
1761226595120180700,-2.298784745275229,4.899777536651492,7.840743895030021,0.2149214893579483,-0.603047251701355,-0.747729480266571,jumping
1761226595130195000,0.1759033871337771,3.500537931203842,6.744599347651004,-0.1084788590669632,-0.833021879196167,-0.6171387434005737,jumping
1761226595140208000,2.600150349202752,3.122549836975336,6.248557120928168,-0.3937667906284332,-0.0975563675165176,-0.5336206555366516,jumping
1761226595150220800,2.9891543429642917,1.3051046932011845,2.904605005186796,-0.6506263017654419,0.9662959575653076,-0.3827260434627533,jumping
1761226595160235000,3.247151783677936,0.458446363300085,-0.2195943525612354,-0.8872189521789551,1.452728509902954,-0.1756804436445236,jumping
1761226595170248000,3.5173572563186286,0.4555436275959014,-1.1705272959291937,-0.970254123210907,1.4663242101669312,-0.0944332331418991,jumping
1761226595180261400,3.423240464250743,-0.3331996889531612,-1.7141151176810263,-0.8921920657157898,1.379502534866333,-0.0395572036504745,jumping
1761226595190274600,3.131391899600625,-1.5807085177540778,-3.9251521675288674,-0.4267066121101379,1.193846344947815,-0.1137019991874694,jumping
1761226595200288500,2.509460316713154,-3.11189283388257,-7.69939656523168,0.2928158342838287,1.232229709625244,-0.4181420505046844,jumping
1761226595210301400,1.370287797860056,-5.630531021046638,-12.361767029255628,1.2156479358673096,1.6223855018615725,-0.7653132677078247,jumping
1761226595220314600,1.3038356961786746,-7.595990551292896,-15.851896963691711,1.8170472383499143,1.718267798423767,-0.9869234561920166,jumping
1761226595230328600,3.2988615126490592,-9.34673765580058,-16.0695612249732,1.8363066911697388,1.4396787881851196,-1.1273658275604248,jumping
1761226595240341500,5.398967413750291,-9.979649774646758,-12.102455583333969,1.5589847564697266,1.5906245708465576,-1.0603036880493164,jumping
1761226595250354400,7.538276613470911,-11.157187826120852,-11.21191310352087,1.0044161081314087,1.7774856090545654,-0.6863620281219482,jumping
1761226595260367400,9.42064869518578,-11.02166058077812,-9.970230788916348,0.2565618753433227,2.1971330642700195,-0.2879762947559356,jumping
1761226595270381600,9.16437910117805,-9.197548380330204,-7.455111423528194,-0.5036823749542236,2.507319450378418,0.0701033547520637,jumping
1761226595280394500,7.703267853707074,-7.849801646232605,-5.964602816659212,-1.1731520891189575,2.7823781967163086,0.3527805805206299,jumping
1761226595290407400,6.470831506353616,-6.958012381228804,-5.505906862512231,-1.6908973455429075,3.2384650707244877,0.6823738813400269,jumping
1761226595300421400,5.790805169633031,-5.969153904092312,-5.842903605660796,-1.9592212438583372,3.7845325469970703,1.0806856155395508,jumping
1761226595310434300,5.567263540750742,-4.004277726691961,-6.289771759369969,-1.879566431045532,4.010900974273682,1.5131456851959229,jumping
1761226595320447500,5.213333782979846,-2.0343343290299174,-6.3234069024682045,-1.5588417053222656,3.679931879043579,1.7920066118240356,jumping
1761226595330460700,4.043656089617312,-0.3533686167567968,-4.573361224228144,-1.0747135877609253,2.818410634994507,1.979603886604309,jumping
1761226595340474400,2.1656100544080137,1.079002858442068,-1.5525976910352706,-0.6137728095054626,1.964856743812561,2.197539091110229,jumping
1761226595350487600,1.4966232903569936,2.6187825689584017,0.409907665580511,-0.3231039941310882,1.4470970630645752,2.475677490234375,jumping
1761226595360500200,0.8374634352501481,4.399485251268744,1.5727169344782828,-0.1351396888494491,1.2947226762771606,2.813860416412353,jumping
1761226595370514400,-0.0509769942497834,6.255726866427064,1.797675444421172,0.1018011718988418,1.317655324935913,3.075902938842773,jumping
1761226595380527600,-1.251351037312299,7.289228787410259,1.33269587996006,0.4580109715461731,1.354577660560608,3.294718027114868,jumping
1761226595390540300,-3.0442189353212714,7.662381132045388,0.5531055916815996,1.051045536994934,1.1408025026321411,3.2963216304779053,jumping
1761226595400554500,-4.726874500377476,7.095594805535674,0.673489043906331,1.715519666671753,0.478148341178894,2.859749794006348,jumping
1761226595410567400,-7.229950084489584,5.347340686887502,2.1233008987277744,2.277602434158325,-0.2087941169738769,2.1661534309387207,jumping
1761226595420580400,-8.95870806002915,4.506614669644832,4.243766866290569,2.6403276920318604,-0.6649672389030457,1.399262547492981,jumping
1761226595430593500,-9.338702233383058,4.047966646292806,5.490816260886192,2.7612080574035645,-0.8383932709693909,0.7897401452064514,jumping
1761226595440607500,-8.088425693434477,4.298032709485292,6.385475528368353,2.5645053386688232,-0.6682260632514954,0.414003849029541,jumping
1761226595450620400,-6.158582250970602,4.806023148155212,6.765613494107127,2.09441351890564,0.0303381662815809,0.2540954351425171,jumping
1761226595460633600,-4.673789099138975,5.743904302248359,6.6479533293664455,1.3812098503112793,0.9122809767723083,0.1856218427419662,jumping
1761226595470647300,-3.934283568489551,6.653385291287303,6.689672994720936,0.5708237290382385,1.511433243751526,0.0644284859299659,jumping
1761226595480660500,-3.7121252106592055,6.596051292693614,7.87368111899197,-0.0973927229642868,1.571568250656128,-0.1409499645233154,jumping
1761226595490673700,-3.4531118709012865,5.5494636801660056,9.018447366198895,-0.606099545955658,1.2334531545639038,-0.353439450263977,jumping
1761226595500686300,-2.776882003854215,4.9452603539317845,9.15991978368163,-0.903172254562378,0.9936685562133788,-0.5393571257591248,jumping
1761226595510700500,-2.151786111716926,4.667117366290092,7.106081712758541,-0.9925618767738342,0.9642194509506226,-0.6546609997749329,jumping
1761226595520713200,-2.0994027212679387,4.687577970516681,3.417048331612349,-0.927880048751831,1.180178165435791,-0.7124414443969727,jumping
1761226595530726400,-2.182838544845581,5.140837286567688,0.0984372856155037,-0.7162884473800659,1.558522343635559,-0.6639277935028076,jumping
1761226595540740600,-2.275205424506217,5.798048564890027,-2.8214924222141504,-0.3060173094272613,1.8171954154968264,-0.4992656409740448,jumping
1761226595550753300,-1.6061353660859166,6.007341888189315,-5.335049360591173,0.3222695291042328,1.851762294769287,-0.3546800315380096,jumping
1761226595560766500,-0.8677712605565786,5.355912115877866,-6.481452269089222,1.0535179376602173,1.8226646184921265,-0.3122239410877228,jumping
1761226595570779400,-0.4433335133096203,3.8765240379601713,-7.043577033528686,1.7362152338027954,1.7627432346343994,-0.318676233291626,jumping
1761226595580793300,-0.0212021798415109,2.271171492815017,-6.890015534323454,2.295006275177002,1.5084401369094849,-0.3257836699485779,jumping
1761226595590806500,0.8037743700075894,0.8522790923923254,-5.846758527523279,2.581554651260376,1.0773271322250366,-0.338408499956131,jumping
1761226595600819500,1.95603645286262,-1.6079057367593048,-3.741788235256076,2.4665093421936035,0.9045576453208924,-0.3586879372596741,jumping
1761226595610833400,2.8901901108652357,-4.094680466672778,-1.6251079237118362,2.017230033874512,1.350275993347168,-0.2865184843540191,jumping
1761226595620846600,4.029799998222291,-6.539407029929757,-1.0863915073886512,1.2261594533920288,1.606738567352295,-0.1425807327032089,jumping
1761226595630859300,5.449325143590569,-7.977743551012873,0.7292503863558173,0.3598546981811523,1.939829707145691,-0.233458787202835,jumping
1761226595640873500,6.277210383960604,-9.933762468218802,3.155975721237063,-0.5747536420822144,1.9042088985443115,-0.3129480183124542,jumping
1761226595650886700,7.288049222236872,-11.982315292215349,4.335761551637948,-1.3696075677871704,1.7488362789154053,-0.2501217424869537,jumping
1761226595660899300,9.20630393371582,-12.586984482395648,4.504550430591404,-1.9897152185440063,1.8807042837142944,0.0490969233214855,jumping
1761226595670912500,10.710604919093846,-12.376881596279144,2.0918606353253124,-2.4004065990448,1.899455189704895,0.5071010589599609,jumping
1761226595680926200,11.177702206361293,-10.288239923000337,-0.2822892936661839,-2.5804262161254883,1.768620491027832,0.8488472104072571,jumping
1761226595690939400,9.544051787492632,-8.18293996038735,-2.2505331939339634,-2.4752676486968994,1.5087738037109375,1.059577465057373,jumping
1761226595700952600,7.051391506671905,-6.244453192740679,-4.415041716840863,-2.099090337753296,1.4094387292861938,1.267719268798828,jumping
1761226595710966300,4.763721006737649,-3.928199280139804,-6.839553759586811,-1.5915229320526123,1.537904977798462,1.4219790697097778,jumping
1761226595720979500,2.706545608085394,-1.4444295772612097,-8.684488383311033,-0.9343461394309998,1.5024830102920532,1.4849413633346558,jumping
1761226595730992600,0.6602862287882715,0.9683563718557358,-8.732495166110992,-0.1990180313587188,0.9395694136619568,1.376159906387329,jumping
1761226595741006300,-0.8642590146519243,1.8724270262837408,-6.479089631611108,0.4706010520458221,0.1750317960977554,1.2425227165222168,jumping
1761226595751019500,-1.5825819104105234,2.681682384985685,-3.857403157904744,1.0230562686920166,-0.2816948890686035,1.157687783241272,jumping
1761226595761032400,-2.017450560376793,4.356666100239753,-2.409655249875784,1.389268398284912,-0.3541419208049774,1.188692331314087,jumping
1761226595771045400,-2.255665588386357,5.977967325145006,-1.5092805273562668,1.5535759925842283,-0.039631113409996,1.2560367584228516,jumping
1761226595781059600,-2.8211601215198634,6.974184932872652,-0.408018490833044,1.4960570335388184,0.3982676565647125,1.281100511550903,jumping
1761226595791072300,-3.712438806653023,7.944594145604968,1.352948102132976,1.2828524112701416,0.809933066368103,1.140755295753479,jumping
1761226595801085400,-4.832844227324426,7.827668140357733,3.507264609110355,1.0176560878753662,1.1099586486816406,0.8985503315925598,jumping
1761226595811099600,-5.785194928535819,7.506059520477056,5.271702385318279,0.7470453977584839,1.2120633125305176,0.6357995271682739,jumping
1761226595821112300,-5.4180169821351765,7.239476037725805,6.741572108784317,0.4057115018367767,1.25072979927063,0.3481475412845611,jumping
1761226595831125500,-4.9639007569938896,7.5666557357370845,7.978294755154848,0.0387594439089298,1.350477695465088,-0.0424114353954792,jumping
1761226595841138400,-5.30497161771357,8.07888688071668,8.473273152038454,-0.2165130674839019,1.19446861743927,-0.4388737976551056,jumping
1761226595851152400,-5.5035886486977335,8.92761441810727,8.73562937248349,-0.3560256063938141,1.0846402645111084,-0.7507482767105103,jumping
1761226595861165600,-4.458618408238888,9.01651785944104,8.36451291759014,-0.4347438812255859,0.9139022827148438,-0.8256826996803284,jumping
1761226595871178500,-2.2834768476367,8.584061092922092,7.844626873943209,-0.4504702389240265,0.7019128799438477,-0.693490207195282,jumping
1761226595881192400,0.2002095608726143,8.440795362281799,7.409626852682233,-0.5200170874595642,0.4488366842269897,-0.47153040766716,jumping
1761226595891205600,1.7238164274841543,7.5565242178231475,6.96652594255209,-0.6428914666175842,0.2956154644489288,-0.2542318701744079,jumping
1761226595901218300,1.9964722158864137,6.536556901195645,6.273080736809969,-0.7902407050132751,0.0052813594229519,-0.1128377467393875,jumping
1761226595911231500,1.7294325138002633,5.165373761931061,5.634658330109716,-0.9146387577056884,-0.4909003376960754,-0.0111357904970645,jumping
1761226595921245400,1.2373317181795835,3.0824288389891383,4.683638292980194,-1.046117067337036,-1.04026997089386,0.0850599855184555,jumping
1761226595931258400,0.9522420532051472,0.7749187893360853,2.4704975488513705,-1.2054375410079956,-1.07172429561615,0.1115360558032989,jumping
1761226595941271600,0.1916426619268953,-1.37812784383595,-1.479983121201396,-1.310011625289917,-0.6808841228485107,0.1575674563646316,jumping
1761226595951285200,-0.829740732043609,-2.5439561682939527,-6.315267435154318,-1.5290775299072266,-0.0410567224025726,0.1875120848417282,jumping
1761226595961298400,-1.0104287231054156,-3.723464643058181,-7.532045025604963,-1.4821652173995972,1.3083834648132324,0.1509687304496765,jumping
1761226595971311400,-0.4887789577215909,-7.603422747120261,-10.655914713007212,-1.46119225025177,2.0233185291290283,0.2062935531139373,jumping
1761226595981324500,0.9631715896289796,-10.7393026057899,-10.6176308673203,-1.4087101221084597,2.2281265258789062,0.1475354433059692,jumping
1761226595991338500,1.5508023320510982,-11.529107414090634,-9.208983966580032,-1.2610386610031128,2.114125967025757,-0.0384587347507476,jumping
1761226596001351400,1.324454413576424,-11.60903026111126,-8.6472484937191,-1.0613082647323608,1.9029299020767207,-0.2112318277359008,jumping
1761226596011364400,1.98894956529662,-11.04923130927086,-8.26619165956974,-0.8610192537307739,1.7149536609649658,-0.2027662396430969,jumping
1761226596021378600,3.3586469960480927,-9.878195479297638,-7.54394822936654,-0.6766579747200012,1.396725058555603,-0.0362635403871536,jumping
1761226596031391500,5.088989025908708,-8.661280526202917,-6.354158599084616,-0.5308388471603394,1.0221047401428225,0.2171276062726974,jumping
1761226596041404400,6.184515733650327,-7.798418664997816,-5.241476173880696,-0.4184496700763702,0.8218498826026917,0.4455711543560028,jumping
1761226596051417300,5.82849864821136,-5.995428163033724,-4.326549194395542,-0.2373170703649521,0.841562032699585,0.6439025402069092,jumping
1761226596061431300,4.733032438485324,-3.465115904688835,-3.836947814375162,-0.048797495663166,0.8878757357597351,0.8516266942024231,jumping
1761226596071444500,3.647271630215645,-1.382088564160466,-2.6910364887863394,0.1352194994688034,0.7316638827323914,1.057207107543945,jumping
1761226596081457400,2.458717971469462,0.2654740602046251,-0.5916670852661132,0.3886840045452118,0.3074489831924438,1.1580044031143188,jumping
1761226596091471400,0.5113112536557018,1.5170271959602832,1.362226510348916,0.6664831042289734,-0.1887902319431305,1.08729088306427,jumping
1761226596101484500,-2.028771288075298,2.2084715832740067,2.840340330547094,0.8944914937019348,-0.5246249437332153,0.8856927752494812,jumping
1761226596111497500,-4.265575085733831,2.914394577795267,3.816692961853742,1.031699299812317,-0.665895402431488,0.6528295874595642,jumping
1761226596121511400,-5.600242265766859,3.839091256144642,4.683889637392759,0.9832265377044678,-0.5998561978340149,0.4186370968818664,jumping
1761226596131524400,-6.0450464726835484,4.650383673632144,5.80604482434094,0.7974202036857605,-0.3530353009700775,0.2175275981426239,jumping
1761226596141537500,-5.987084697580337,5.647378110951185,6.695769558030366,0.4955666065216064,-0.1150517612695694,0.0593989491462707,jumping
1761226596151550500,-5.43408665792644,6.525605883592367,7.531451735886931,0.1520294398069381,-0.0342230424284935,-0.0961590334773063,jumping
1761226596161564400,-4.638768639162183,6.755559717604518,8.432725453072786,-0.2249633818864822,-0.2360027730464935,-0.271595299243927,jumping
1761226596171577300,-3.9163738177895535,6.824395353421568,9.471399808257818,-0.5924057364463806,-0.433387279510498,-0.4093058109283447,jumping
1761226596181590000,-3.1726860330194238,7.211266426807642,9.857465995001792,-0.9408017992973328,-0.435707688331604,-0.3932799696922302,jumping
1761226596191604200,-2.207461821709573,8.29316149955988,8.826881422770024,-1.177325963973999,-0.2902408838272095,-0.3125442564487457,jumping
1761226596201617000,-1.7124357862919568,9.286735314780474,7.134740821009874,-1.2244255542755127,-0.1058710366487503,-0.2069978415966034,jumping
1761226596211630000,-1.6427192759871485,9.609197336620092,4.974043965345621,-1.09302818775177,0.1069859415292739,-0.0907654091715812,jumping
1761226596221643000,-1.3460823080167172,9.186538910537958,3.0231998204290864,-0.8493528962135315,0.3713174760341644,0.0059259803965687,jumping
1761226596231657000,-1.1981393793456256,8.261179384365677,1.4801421111553907,-0.5520575642585754,0.5358322262763977,0.0004620460094884,jumping
1761226596241670100,-1.679350386030972,7.341512516877055,0.7409101367503405,-0.2449527978897094,0.5351568460464478,-0.1229975745081901,jumping
1761226596251683000,-2.441947453932464,6.616561581280827,0.8921078294336795,0.0139377377927303,0.3913643360137939,-0.3095841109752655,jumping
1761226596261697000,-2.896602900516987,5.821101523697376,1.4559417358785869,0.2001648694276809,0.1294506937265396,-0.4884247183799743,jumping
1761226596271710200,-2.8925507025167345,5.293350738024711,1.853821694535017,0.3242687880992889,-0.0742906332015991,-0.6070495247840881,jumping
1761226596281723100,-2.3583719296231864,4.817261166006326,1.3842793522030117,0.4738116860389709,-0.0546841695904731,-0.5894439220428467,jumping
1761226596291736000,-1.1031738614939153,3.8564322670459754,-0.60851417517066,0.6113354563713074,0.1753189861774444,-0.5308404564857483,jumping
1761226596301750300,-0.0895027224011719,1.83921273894608,-2.747970674407482,0.6519649028778076,0.5347192287445068,-0.5441967248916626,jumping
1761226596311763000,0.1007103451140224,-0.6859124721497297,-3.932584947878122,0.4904009699821472,0.929489254951477,-0.6162095665931702,jumping
1761226596321776000,0.2603124396577477,-3.004252543374896,-3.707256435579061,0.1210191920399665,1.281192183494568,-0.6902060508728027,jumping
1761226596331790000,0.91105086870417,-4.99364766048193,-2.714236162588,-0.3399668037891388,1.429417848587036,-0.7400700449943542,jumping
1761226596341803000,1.9359867675244808,-6.342733534228802,-2.1024843206703663,-0.7566311955451965,1.2273151874542236,-0.7114586234092712,jumping
1761226596351816200,3.6050972068309775,-7.134229364356398,-2.29078687838912,-1.050265550613403,0.6677303314208984,-0.6428729891777039,jumping
1761226596361829000,5.241966587746143,-8.746911229476332,-2.9455414112091063,-1.2274677753448486,0.0633674412965774,-0.458432525396347,jumping
1761226596371843000,6.476128443717956,-9.784482591855523,-4.462886587077379,-1.3508365154266355,-0.3906170427799225,-0.1672331541776657,jumping
1761226596381856000,7.059796931445598,-9.911925899463892,-6.403942328429221,-1.4499000310897827,-0.6166719794273376,0.2057641148567199,jumping
1761226596391869200,6.691558662337064,-9.806377028277517,-8.0756270021379,-1.5073416233062744,-0.6059817671775818,0.5888993144035339,jumping
1761226596401883100,6.110795248401165,-8.891196366292238,-9.768614576116205,-1.5097485780715942,-0.5162643790245056,0.9225590229034424,jumping
1761226596411896000,5.434543169522285,-8.217371806821227,-11.341798543584346,-1.4310320615768433,-0.2867452502250671,1.192865014076233,jumping
1761226596421909000,4.33828405585289,-7.605509490266442,-12.74108783339262,-1.1067519187927246,-0.08130394667387,1.3431575298309326,jumping
1761226596431922000,2.3727875545971093,-6.9045204450160265,-14.114099357128142,-0.5898563861846924,0.0860540270805358,1.2770137786865234,jumping
1761226596441936100,-0.2290779279604554,-6.721454034385085,-14.679482831102607,-0.0269051380455493,0.302569568157196,1.0174371004104614,jumping
1761226596451949000,-2.822637208335101,-6.166230135375261,-13.752992255073783,0.4500845372676849,0.540837287902832,0.7078423500061035,jumping
1761226596461962000,-4.300661888945102,-4.55740202307403,-11.398838527667522,0.8310691714286804,0.7179971933364868,0.4720311760902405,jumping
1761226596471976000,-4.178605827333032,-2.5417694719046358,-8.162764602842927,1.0756282806396484,0.6547228097915649,0.3533736765384674,jumping
1761226596481989000,-2.9827126194790003,-0.6039215866833925,-4.161095597344636,1.173289775848389,0.4758201539516449,0.3429873287677765,jumping
1761226596492002000,-1.942860014294833,1.104424299946427,-0.170329094132781,1.2362849712371826,0.2322293221950531,0.4357399046421051,jumping
1761226596502015200,-1.448993816436827,3.159586897471547,2.741379021057486,1.3563799858093262,-0.0290491487830877,0.6282137036323547,jumping
1761226596512029200,-1.3210695934437215,5.10657319791615,4.385257403951883,1.5862061977386477,-0.2108657956123352,0.8036434054374695,jumping
1761226596522042000,-1.827228286641836,6.013381168353558,4.806646833011508,1.8357526063919067,-0.3538535535335541,0.8956097960472107,jumping
1761226596532055000,-2.716180282393098,6.291760887360573,5.311067596501112,2.0152506828308105,-0.2937775254249573,0.8758533000946045,jumping
1761226596542069000,-3.62133814753592,6.636863780075311,5.98803103851974,2.0549886226654053,0.0698890909552574,0.7329909205436707,jumping
1761226596552082200,-4.307926911512017,7.298358434805274,6.183215172445774,2.0338244438171387,0.1660185307264328,0.5452173352241516,jumping
1761226596562095000,-4.554544880077243,7.311191028371453,6.634390667960047,1.94861102104187,0.1194456964731216,0.3186491429805755,jumping
1761226596572108000,-4.672328671197593,6.241411925348639,7.397702021610736,1.7309823036193848,0.0690840184688568,-0.0245862063020467,jumping
1761226596582122000,-5.442346536749601,6.865267462036013,8.21814863641262,1.2777434587478638,-0.0647749751806259,-0.4202214181423187,jumping
1761226596592135000,-5.997275252205133,8.71908974109292,9.31212285401523,0.6374285817146301,-0.1043573915958404,-0.7522754073143005,jumping
1761226596602148000,-5.5700259912014,9.769064657971262,9.99171430644989,0.0289833787828683,0.0519643016159534,-0.8656259179115295,jumping
1761226596612162000,-3.9342666173547514,9.643750763607024,9.068847181615231,-0.4256353676319122,0.3983373343944549,-0.7756747603416443,jumping
1761226596622175000,-1.8257134981647127,8.567010004878044,7.116463406041264,-0.6471121311187744,0.6281816959381104,-0.5607816576957703,jumping
1761226596632188200,0.0451835420727729,7.163648351064324,4.812842472781241,-0.6693077087402344,0.4228059649467468,-0.3161055445671081,jumping
1761226596642202000,0.7083094512663781,5.884468372714519,4.067120259574056,-0.5405832529067993,0.1109178587794303,-0.1480454504489898,jumping
1761226596652215000,0.5228408017992973,5.506688952800631,2.9427605483189225,-0.2768284380435943,-0.3452643156051636,-0.0841607302427291,jumping
1761226596662228200,-0.0265310101814568,5.174630250576138,2.074486891198158,0.0528461411595344,-0.7760077118873596,-0.0561264343559742,jumping
1761226596672241000,-0.3665620064593851,4.408842277678847,1.2002286067098378,0.4059348106384277,-1.0231462717056274,-0.0062335291877388,jumping
1761226596682255000,-0.2243760338798165,3.803694948592782,-0.1375499833419919,0.820295512676239,-1.0796257257461548,0.0448807887732982,jumping
1761226596692268000,-0.2931554825302213,3.007655629816651,-1.923656862783432,1.244384765625,-0.9794083833694458,0.0944836884737014,jumping
1761226596702281000,-0.403693978697434,2.091872325763106,-3.439541902971268,1.6211203336715698,-0.8346844911575317,0.1084967106580734,jumping
1761226596712295200,-0.3554208731114864,0.6000006138473749,-4.269333853745461,1.854163646697998,-0.7213336825370789,0.0424732267856597,jumping
1761226596722308000,-0.5124006563276052,-1.6330658969789742,-4.011369438518583,1.9480011463165283,-0.3939558267593384,-0.0815613716840744,jumping
1761226596732321000,-0.5853901969537139,-3.786964763066172,-3.812413092577457,1.8976527452468872,-0.062291320413351,-0.287092924118042,jumping
1761226596742334200,-0.358968263394758,-5.8765060155332085,-3.09667480648458,1.6083853244781494,-0.0271301325410604,-0.5249755382537842,jumping
1761226596752348200,0.433231184957549,-8.007410375002026,-0.6525421174675226,1.0552712678909302,-0.3694328665733337,-0.6924577355384827,jumping
1761226596762361000,2.159631418389827,-9.950966116476058,1.987809309220314,0.3602165877819061,-0.7269750237464905,-0.6101892590522766,jumping
1761226596772374300,4.457536165960133,-10.952149237656592,2.705592252883315,-0.2727779150009155,-0.7845882177352905,-0.2160200029611587,jumping
1761226596782388000,6.797496240580082,-11.024799463325738,0.9253276697292924,-0.7902173399925232,-0.650139570236206,0.3375912308692932,jumping
1761226596792401200,7.880846772837638,-10.704676698088646,-0.9585705986395476,-1.171008825302124,-0.3963885307312011,0.7656754851341248,jumping
1761226596802414000,7.082045588132739,-10.618927336871623,-2.278938035163283,-1.412277340888977,-0.1627504676580429,0.9587682485580444,jumping
1761226596812427000,5.091822203508019,-10.7919317876935,-3.184128341270983,-1.5111173391342163,-0.0645128414034843,0.9849532842636108,jumping
1761226596822441200,3.523996840463578,-10.787544366389511,-3.641752574533224,-1.4560189247131348,-0.1948689967393875,0.9316889643669128,jumping
1761226596832454000,2.809662575949728,-10.984883632522822,-3.975859441459179,-1.2554768323898315,-0.4886383712291717,0.8486379981040955,jumping
1761226596842467000,2.042474673126638,-11.052722073996067,-4.384197081243991,-0.9779489636421204,-0.6711493134498596,0.691615879535675,jumping
1761226596852480300,0.6155057876236737,-10.099401943230628,-4.978589207559824,-0.7165471911430359,-0.5314410328865051,0.4195911884307861,jumping
1761226596862494000,-1.359433518629521,-8.127598596915602,-5.095289002835751,-0.5361265540122986,-0.2768582701683044,0.0784935131669044,jumping
1761226596872507100,-2.987169306626916,-5.691392609244585,-4.159900834602118,-0.4225720167160034,-0.0863310918211937,-0.1709851771593094,jumping
1761226596882520000,-3.263744022038579,-2.9023434899955984,-2.122956907595694,-0.3136721849441528,-0.1469347774982452,-0.2268119603395462,jumping
1761226596892534000,-2.2756873628042635,0.1971644940882921,-0.0405161347836256,-0.1336341202259063,-0.4668916761875152,-0.0129909478127956,jumping
1761226596902547200,-0.8873436837717891,3.0654239281743765,1.6941203774005174,0.1186585873365402,-0.7270686626434326,0.3131336271762848,jumping
1761226596912559900,-0.0563010753493756,4.70237105050087,2.0775582614675163,0.4148859679698944,-0.9335713982582092,0.5157603621482849,jumping
1761226596922573000,-0.7283493458628654,5.056158184930682,2.190109412631392,0.6658316254615784,-0.922235667705536,0.586965024471283,jumping
1761226596932587300,-1.8448793864056467,5.467538261151313,2.5767858402282,0.8526656031608582,-0.7900800108909607,0.4491259157657623,jumping
1761226596942600000,-3.593706044244766,5.94306435406804,2.92045022457242,0.8590127229690552,-0.6946512460708618,0.0785643458366394,jumping
1761226596952613000,-5.619959358149766,6.337577466639876,4.081314204621314,0.6791300773620605,-0.5067065358161926,-0.3465873599052429,jumping
1761226596962627000,-6.557945141661167,7.670606524077058,5.333392241033911,0.3387379348278045,-0.2190989553928375,-0.7103593945503235,jumping
1761226596972640000,-6.185920924273133,9.093463151955604,6.155645612996817,-0.0733052939176559,-0.0279287807643413,-0.9602856636047364,jumping
1761226596982653200,-4.799645137555897,9.378654304543137,6.82349694327712,-0.4716731607913971,-0.0089332507923245,-1.0641995668411257,jumping
1761226596992666000,-3.088119451846182,9.110254127758742,7.361255912744999,-0.8097846508026123,-0.0415671318769454,-1.0558401346206665,jumping
1761226597002680000,-1.7321147386215625,9.147861681619286,7.275306645041704,-1.061207294464111,-0.0524400174617767,-0.9986546635627748,jumping
1761226597012693200,-0.928592224483192,9.24764833601713,6.749837832826375,-1.2446250915527344,-0.1621488183736801,-0.9456691145896912,jumping
1761226597022706000,-0.5289355384778232,9.119328245574236,6.287880246534943,-1.33576238155365,-0.2961138188838959,-0.9029698371887208,jumping
1761226597032720100,-0.1645697268884628,8.686441270944476,5.736469768333435,-1.3074636459350586,-0.4656997621059418,-0.7387280464172363,jumping
1761226597042733000,0.8030434253845363,8.539016082537174,4.6775955056846135,-1.2024142742156982,-0.7748025059700012,-0.5229840278625488,jumping
1761226597052746000,1.6952593183025717,8.168763550996779,3.988372886073589,-1.0482765436172483,-1.0669782161712646,-0.2495269924402237,jumping
1761226597062759200,2.0798612777128813,7.560817531102895,3.164545981183648,-0.8506593108177185,-1.16681170463562,0.0013411918189376,jumping
1761226597072772900,1.7342641717404126,7.24172410891354,1.9473183088779449,-0.5567518472671509,-1.1191771030426023,0.1480921804904937,jumping
1761226597082786000,0.5215365142676979,6.901276348528265,0.1880593966126441,-0.1697753220796585,-1.1140002012252808,0.1994033008813858,jumping
1761226597092799000,-0.8708157428190112,6.378969799736142,-0.689470456892252,0.2284263521432876,-1.0481425523757937,0.1422743052244186,jumping
1761226597102813000,-2.2535697851508854,5.981347030711174,-1.413583772620559,0.651141345500946,-0.9694442749023438,-0.0140053089708089,jumping
1761226597112826000,-3.3061218590408563,5.237761537271738,-1.8290812210321423,1.0231200456619265,-0.940455675125122,-0.1917707473039627,jumping
1761226597122839000,-3.2761481610596177,3.672302611097693,-2.1653753688693045,1.29766583442688,-0.8924537897109985,-0.3152189254760742,jumping
1761226597132852000,-2.3150893988661467,1.5299901379078626,-2.2247984486967325,1.382873296737671,-0.7737984657287598,-0.3816316723823547,jumping
1761226597142866200,-1.438158241906762,-0.9389911611616611,-2.0044892258644103,1.2467749118804932,-0.6075916290283203,-0.4416529536247253,jumping
1761226597152879000,-0.8305993946995586,-3.1010785944014785,-1.0637719715625047,0.8400672078132629,-0.5030514597892761,-0.5712500810623169,jumping
1761226597162892000,-0.5842349990366026,-5.203729503810405,0.4970230544537306,0.1278540194034576,-0.5664328336715698,-0.7715387344360352,jumping
1761226597172906200,-0.062294835871458,-7.074988655358553,2.3321686900913714,-0.8056430220603943,-0.7090849280357361,-0.9143112897872924,jumping
1761226597182919000,1.0688893145762384,-8.589425250303744,3.188606071206927,-1.7569012641906738,-0.7017971873283386,-0.799518346786499,jumping
1761226597192931800,3.2093688732504844,-9.70033949679136,1.8186019125938413,-2.6041955947875977,-0.5326871275901794,-0.3977183103561401,jumping
1761226597202944800,5.378064326453209,-9.948263287258149,-0.7336655724495649,-3.31531023979187,-0.2109591364860534,-0.0341334231197834,jumping
1761226597212958700,5.547098120078444,-9.275757993692158,-3.068050185024738,-3.820722818374634,0.0156358536332845,0.1355026811361313,jumping
1761226597222972000,4.24743941732347,-8.808187828215956,-5.346911647820472,-3.944033622741699,0.043326336890459,0.3007856607437134,jumping
1761226597232984800,3.978777959254384,-8.595387958100437,-8.246437742307782,-3.538954257965088,-0.2500620186328888,0.7031164169311523,jumping
1761226597242998800,5.39083612974286,-8.174220647358894,-11.551488757246732,-2.685549736022949,-0.8158894777297974,1.1209672689437866,jumping
1761226597253012000,5.993619652307033,-8.668551978510617,-14.6759920663774,-1.6938891410827637,-1.206934928894043,1.23756206035614,jumping
1761226597263025000,3.147548084631562,-8.73585616697669,-16.369668791663646,-0.8505768775939941,-1.2302600145339966,0.9103571772575378,jumping
1761226597273037800,-1.3731477173358202,-7.717061401259898,-16.31063324984908,-0.3087710738182068,-0.9361846446990968,0.3832508325576782,jumping
1761226597283052000,-4.374276867993176,-6.776306737557054,-14.278102170848843,-0.0798058062791824,-0.3283871412277221,-0.0480339713394641,jumping
1761226597293065000,-4.78750841729939,-5.3939861182063815,-11.278207238161563,-0.0515018850564956,0.4615297317504883,-0.2745087742805481,jumping
1761226597303078000,-3.631068391172588,-3.642929217097163,-8.2079820471853,-0.0774945989251136,1.210848689079285,-0.3180192410945892,jumping
1761226597313090800,-2.252376775974035,-1.8937813644796608,-5.19903988468945,-0.0113779753446578,1.5910708904266355,-0.2044810205698013,jumping
1761226597323104800,-1.060510850874707,-0.1752683041006326,-2.1232734261989594,0.2306801974773407,1.5729302167892456,-0.0387445166707038,jumping
1761226597333118000,-0.262318153456971,1.063245317339897,0.4207265812367201,0.5519911646842957,1.2107073068618774,0.0364895798265934,jumping
1761226597343131000,-0.203360827977769,1.3647802864849568,2.5855484078764914,0.8909080028533936,0.7470715045928955,-0.032703872770071,jumping
1761226597353144800,-0.9925399421282112,1.6841887659728525,4.50881948621273,1.1948035955429075,0.3166230320930481,-0.2396971136331558,jumping
1761226597363157800,-2.0368696927264334,2.545662972211838,5.814960536724328,1.4031877517700195,0.0307007357478141,-0.4900148212909698,jumping
1761226597373171000,-2.581248372595012,3.5256992604672908,6.656051880148053,1.4689767360687256,-0.0237087942659854,-0.6616151332855225,jumping
1761226597383184000,-2.4365263056665656,4.572608360034227,7.121323121032118,1.422606110572815,0.1226201951503753,-0.7574799060821533,jumping
1761226597393197800,-1.967287768586725,5.436438774010539,7.382394562363624,1.2623354196548462,0.2733759880065918,-0.8083512187004089,jumping
1761226597403210800,-1.6889584645926952,6.164556064683199,8.036531840068102,1.0440433025360107,0.4009675085544586,-0.8253743648529053,jumping
1761226597413223700,-1.4120225146532055,6.555884117478132,8.395468612346052,0.7819460034370422,0.499367356300354,-0.8216598033905029,jumping
1761226597423238000,-1.4352398702420293,7.259632106047868,8.746862714159489,0.4942615032196045,0.5601452589035034,-0.8102769255638123,jumping
1761226597433250800,-1.439760124145448,7.867239687767625,8.802692153409122,0.2327270209789276,0.4996844232082367,-0.7909339666366577,jumping
1761226597443263700,-1.3801083501286804,7.845173401910066,8.729622241023183,0.0344379097223281,0.3191871047019958,-0.7511473894119263,jumping
1761226597453277000,-1.2479402059555054,7.705181578373908,8.339480767664313,-0.1213106215000152,0.0588733851909637,-0.6863128542900085,jumping
1761226597463291000,-0.9557587560892103,7.5137366309762,7.845345835867524,-0.2427664697170257,-0.1045174077153205,-0.5555758476257324,jumping
1761226597473303800,-0.4152002920959144,7.530721083524822,6.815457429206371,-0.3553981482982635,-0.1976092755794525,-0.3368712365627289,jumping
1761226597483317000,0.1366162096232175,7.615656205749511,5.651953748303652,-0.4296968579292297,-0.2140598893165588,-0.1818824410438537,jumping
1761226597493331000,-0.2739537192583084,7.379367908018827,4.517826384010911,-0.384474515914917,-0.0770306587219238,-0.1416745632886886,jumping
1761226597503343900,-1.4451567224919797,6.996639341264963,2.873971966513991,-0.2844166457653045,0.1715200245380401,-0.1404279470443725,jumping
1761226597513356800,-2.1802685482271014,6.583941168183088,1.3649153110414742,-0.0992601588368415,0.4160751104354858,-0.1821613311767578,jumping
1761226597523369700,-2.3576680191375314,5.605465553373098,0.0880284120649099,0.1812220960855484,0.3882807791233063,-0.2072895914316177,jumping
1761226597533384000,-2.0096039385296405,4.562982453554868,-0.662951867800951,0.4988652765750885,0.2122008949518203,-0.1203056126832962,jumping
1761226597543396900,-0.7629872362628579,3.639087739238143,-1.35345342130661,0.8231009244918823,0.1364949494600296,0.0698294416069984,jumping
1761226597553409800,0.6772158093445002,2.161266179984808,-2.424853988051414,1.2025856971740725,0.2542309761047363,0.2260132730007171,jumping
1761226597563423700,1.4585318985022604,0.1169341885536909,-3.862148891127109,1.5237163305282593,0.3901959955692291,0.2124330103397369,jumping
1761226597573437000,1.4022095611691474,-3.586559095099568,-4.610000225317478,1.4523677825927734,0.1624501794576645,0.0327175632119178,jumping
1761226597583449900,1.463926889413595,-7.703637856063247,-2.2079110267817974,0.9042878746986388,-0.4420186579227447,-0.3630199134349823,jumping
1761226597593463000,1.0636422077029943,-10.287150374197958,1.7113655267119408,0.0260844081640243,-0.9223673939704896,-0.7243075370788574,jumping
1761226597603476700,1.2987588313058018,-11.852736141622064,3.391802246674895,-0.8359033465385437,-0.9867666363716124,-0.7219064235687256,jumping
1761226597613490000,3.272015591299533,-12.01960895782113,1.6475994492441417,-1.588098406791687,-0.8938828110694885,-0.3395420610904693,jumping
1761226597623502800,5.3004339742839335,-10.46794299467802,-0.7329162153869867,-2.237798929214477,-0.4931963980197906,0.1083009839057922,jumping
1761226597633515800,5.326628738248348,-8.609207224616409,-2.8270518099069597,-2.67266845703125,0.1822813153266906,0.3802120387554168,jumping
1761226597643530000,3.756586575937271,-7.510026670542359,-5.363902530109882,-2.8182361125946045,0.6315850615501404,0.4564247727394104,jumping
1761226597653542700,2.1003050769351423,-7.312058458855748,-7.481480375015735,-2.678619146347046,0.6954339146614075,0.4286281168460846,jumping
1761226597663555800,1.5731732999436556,-7.832197600480914,-8.181476317575573,-2.27453351020813,0.3024687767028808,0.3469681441783905,jumping
1761226597673569800,1.837033349080384,-8.19923759971559,-8.594472012299299,-1.6740111112594604,-0.2856155931949615,0.2289412766695022,jumping
1761226597683582700,1.7662572467200457,-7.77013657336533,-8.542142105603217,-1.0714799165725708,-0.7704951763153076,0.0503326430916786,jumping
1761226597693596000,0.7083318092286587,-6.577181757050752,-8.024265648213028,-0.6413349509239197,-1.1057121753692627,-0.1670405268669128,jumping
1761226597703608800,-0.5321037932503968,-4.806417700430751,-6.237718331527709,-0.4331503212451935,-1.2185710668563845,-0.315080314874649,jumping
1761226597713622800,-1.0510570130266248,-2.927919245278835,-4.0196319476902485,-0.407794713973999,-1.0318607091903689,-0.2811156213283539,jumping
1761226597723636000,-0.6715380559690296,-0.8192489294499158,-2.294921786236763,-0.4761311709880829,-0.7032744288444519,-0.0854843333363533,jumping
1761226597733649000,-0.016318316790089,1.0552964041620492,-1.0054852022886276,-0.5611591935157776,-0.4371724724769592,0.1648679077625274,jumping
1761226597743661800,0.3281815685302019,2.438656887954473,0.2934942860305309,-0.6161553859710693,-0.3122305572032928,0.3633522391319275,jumping
1761226597753676000,0.0831855020783841,3.2618384806782004,1.6600673011511564,-0.5983549356460571,-0.2882241904735565,0.4689322710037231,jumping
1761226597763688700,-0.7574655502319335,3.668756316792965,2.5740005934238432,-0.4877636730670929,-0.2685181200504303,0.5026383399963379,jumping
1761226597773702000,-1.6094477055042982,3.853517256382108,2.8478409154355524,-0.3382351398468017,-0.2144308686256408,0.4587044715881347,jumping
1761226597783715800,-2.300432366351783,3.975734938296676,2.983013355991244,-0.1646220684051513,-0.1441505849361419,0.3506743907928467,jumping
1761226597793728800,-2.9341920419380068,4.223433103314042,3.189547735971212,0.0142002925276756,-0.1190507411956787,0.1996889561414718,jumping
1761226597803742000,-3.2662510364234447,4.45577763185501,3.597179273313284,0.1728623807430267,-0.1282306611537933,0.0731507316231727,jumping
1761226597813755000,-3.020224604010582,4.653700250834226,4.150580048549175,0.3068732321262359,-0.1653597950935363,-0.0148010989651083,jumping
1761226597823768800,-2.4838600115105507,4.846602995824814,4.659681078809499,0.372206449508667,-0.2025926411151886,-0.0743216872215271,jumping
1761226597833782000,-1.947260148949921,4.862157707831264,5.2284460119158025,0.4066590368747711,-0.1095935106277465,-0.0995850041508674,jumping
1761226597843795000,-1.6484147111497818,5.010548526400328,5.389902648285031,0.3916758298873901,-0.0003327978774905,-0.1220687478780746,jumping
1761226597853809000,-1.5486892854198813,5.044895032638311,5.37315784971118,0.3227872252464294,0.0780007019639015,-0.1665125638246536,jumping
1761226597863821800,-1.5192109697401524,4.731612342554331,5.700739114260673,0.2528278529644012,0.1300420761108398,-0.2155307084321975,jumping
1761226597873834800,-1.561651642845571,4.586037165927887,5.773304584255814,0.1998606920242309,0.2240273207426071,-0.2472812682390213,jumping
1761226597883848000,-1.4334807516150176,4.622691949108242,5.445542702442407,0.1672404259443283,0.3226617574691772,-0.2634197473526001,jumping
1761226597893862000,-1.2391858216136693,4.550135246941447,4.8686435627192255,0.1482648700475692,0.3424018919467926,-0.2679170370101928,jumping
1761226597903874800,-0.9721284377403556,4.53543335237205,4.534723158276081,0.1446389704942703,0.2683282196521759,-0.2255613356828689,jumping
1761226597913888000,-0.5583801710836589,4.361799371474981,4.1734985673218965,0.1623394191265106,0.0799763724207878,-0.1977526247501373,jumping
1761226597923901000,-0.3391029947128147,4.007590796762704,3.657829264587164,0.2107010930776596,-0.1424353867769241,-0.1912659704685211,jumping
1761226597933915000,-0.6169603703461587,3.575878126609325,2.5337480780124664,0.3674138188362121,-0.1698303073644638,-0.1358227431774139,jumping
1761226597943927800,-0.7046982750318944,3.409551838377118,0.3172036629199981,0.6749106645584106,0.0081034675240516,-0.0267284736037254,jumping
1761226597953941000,-0.5605942669365555,3.0519810937553644,-2.640708569562435,1.1044094562530518,0.2450095564126968,0.0193709041923284,jumping
1761226597963955000,-0.7497114289738237,2.042716957449913,-4.932844524472952,1.5437809228897097,0.3412005305290222,-0.0165218506008386,jumping
1761226597973968000,-1.0914781630031765,0.8561293380796909,-5.662168852847814,1.919644951820373,0.3401997983455658,-0.0771978944540023,jumping
1761226597983980800,-0.96569336319156,-0.1390466516405344,-5.633754659268259,2.140899896621704,0.2794874310493469,-0.1793205440044403,jumping
1761226597993993700,-0.3842117179837078,-1.7724240987867117,-5.094642521625757,2.2027125358581543,0.0507423356175422,-0.3772355616092682,jumping
1761226598004008000,-0.0284914965994656,-3.8002135362178087,-3.949968628877401,1.9441767930984497,-0.3739556968212127,-0.6850525140762329,jumping
1761226598014020900,-0.1387712687652558,-6.107784960669279,-1.7133336119145155,1.3857141733169556,-0.6740047931671143,-0.9594804048538208,jumping
1761226598024033800,-0.1516769275676459,-6.900135946321487,-0.0721206488370895,0.7051100730895996,-0.8787022829055786,-0.966784119606018,jumping
1761226598034047000,0.7055262502886355,-6.030177404853701,-0.4314607412189244,0.1463136672973632,-0.8807352781295776,-0.5292714238166809,jumping
1761226598044061000,3.193128517067432,-4.447333044114709,-1.3533522990196942,-0.2984885573387146,-0.477582722902298,0.1780495047569275,jumping
1761226598054073900,5.240345124024152,-3.6280361838698383,-2.926076832282543,-0.5920870304107666,0.2364729791879654,0.9505943655967712,jumping
1761226598064087000,5.976251168876886,-3.937683732321858,-4.276449238708615,-0.7408648133277893,0.8126137852668762,1.5053797960281372,jumping
1761226598074101000,5.2570916761636735,-5.52161238116622,-5.588125126993656,-0.8486645221710205,1.0812517404556274,1.615056037902832,jumping
1761226598084114000,2.862183621303737,-7.549144044443964,-5.735333457779884,-0.8742929100990295,0.9272791743278505,1.328112244606018,jumping
1761226598094126800,0.4073198410443961,-8.8920883466959,-5.1181864788204425,-0.7209682464599609,0.2525537312030792,0.993425726890564,jumping
1761226598104139800,-0.0822124192625284,-10.056170704269409,-4.289608580011129,-0.5147706270217896,-0.7293556332588196,0.8004339337348938,jumping
1761226598114154000,1.5246699657984075,-10.102229860132931,-3.313862682425976,-0.3349603712558746,-1.435659646987915,0.8110869526863098,jumping
1761226598124167000,2.1137920427568258,-8.982155571112036,-3.3949697707951065,-0.2457178682088852,-1.726911187171936,0.983374297618866,jumping
1761226598134179800,1.7571939425595104,-7.262790277817845,-3.6337493008196353,-0.3138889670372009,-1.3928667306900024,1.1329560279846191,jumping
1761226598144193000,0.2339058230409398,-6.057276424181461,-3.742407828459144,-0.546847403049469,-0.7207186222076416,1.160599946975708,jumping
1761226598154206700,-2.000054750548303,-5.011715816614031,-3.277144186359644,-0.814331591129303,0.0303878560662269,1.069389820098877,jumping
1761226598164220000,-3.811431388063729,-3.8867280365884302,-2.168599007090926,-0.9913790822029114,0.7130143642425537,0.8743466138839722,jumping
1761226598174232800,-4.407981276935339,-2.6169518463999037,-1.4369476970732211,-1.034616470336914,1.1387559175491333,0.5605301856994629,jumping
1761226598184247600,-4.240060705249011,-1.3797756110429762,-0.6923579950273037,-0.8835175037384033,1.1107852458953855,0.172802448272705,jumping
1761226598194260500,-4.069460977481305,-0.0352963543087244,0.2142190892636775,-0.5674161314964294,0.8281165957450867,-0.1743094474077224,jumping
1761226598204273400,-3.386974680387973,0.8455611823141574,1.2364537663012742,-0.1660055965185165,0.4101613759994507,-0.4237911701202392,jumping
1761226598214286600,-2.4260490430548787,1.70564130384624,2.230451359891892,0.2497084289789199,0.0649001449346542,-0.5259093046188354,jumping
1761226598224300300,-1.3998743962198494,3.0895342870801685,2.88425078394413,0.5522629618644714,-0.1540854573249817,-0.4566114544868469,jumping
1761226598234313500,-0.1076025523131713,4.420924929660559,3.449367131415009,0.6925726532936096,-0.178270012140274,-0.3161900043487549,jumping
1761226598244326700,0.4938683532824739,5.077894800442457,4.210241028785705,0.6867408752441406,-0.0082109374925494,-0.2124180644750595,jumping
1761226598254339600,0.1868383121187798,5.293056723514199,4.858412091562152,0.5985057353973389,0.2407275736331939,-0.2198487520217895,jumping
1761226598264353500,-0.6164945064000785,5.242449987348913,5.61126284147501,0.4476363360881805,0.3830216228961944,-0.3787441253662109,jumping
1761226598274366500,-1.645884462019801,4.95328934660852,6.444075601375102,0.2616731822490692,0.4257875680923462,-0.5801985859870911,jumping
1761226598284379400,-2.1300478887699543,4.700893379163742,7.43363258216977,0.0894582867622375,0.5241543650627136,-0.6985020637512207,jumping
1761226598294392600,-1.566449544646591,4.85041407854557,7.569622768849134,-0.0315138325095176,0.5297093987464905,-0.7411954998970032,jumping
1761226598304406500,-0.6715479197759181,5.248288191983104,7.286513098710775,-0.1174476519227027,0.3702262341976166,-0.6692739129066467,jumping
1761226598314419500,0.351554041615501,5.530737352386117,7.10475835520029,-0.1381573528051376,0.174713134765625,-0.480017215013504,jumping
1761226598324432400,1.4583004278339444,5.851523549968004,6.686016225779056,-0.0586835704743862,0.0198061130940914,-0.2824218571186065,jumping
1761226598334446300,1.6394800018049775,6.122493869501352,5.56038430263102,0.0470718592405319,-0.1707279980182647,-0.115778662264347,jumping
1761226598344459500,1.0865128687459975,6.304793387413024,4.458757524448633,0.2348340302705764,-0.1879647821187973,0.1054717004299163,jumping
1761226598354472400,0.8446512278623879,6.555288489672542,3.169022834336757,0.4815341830253601,-0.0852477326989173,0.3345269858837127,jumping
1761226598364485400,0.8839571100734174,6.656353493443131,1.6869512164235114,0.679922342300415,0.0345734730362892,0.4029068350791931,jumping
1761226598374499600,0.146744914525561,5.796369233500958,1.2101356682181357,0.8241140246391296,0.1285278499126434,0.2463970333337783,jumping
1761226598384512500,-1.403320883411914,5.076368029266596,1.23592068233788,0.9667696952819824,0.0594462491571903,-0.0525936633348465,jumping
1761226598394525400,-2.8684654780521988,5.0612096231013535,1.3954559952557086,1.1423208713531494,0.0096888244152069,-0.3390717506408691,jumping
1761226598404538400,-3.298482450203597,4.882388010433316,0.916474793449044,1.343613862991333,0.0542064905166626,-0.5424358248710632,jumping
1761226598414552600,-2.6718624172389505,4.242492024049163,-0.0338245281904935,1.5655375719070437,0.0402190461754798,-0.6169084310531616,jumping
1761226598424565500,-1.825940292657912,3.829479378190636,-1.125245554178953,1.792723536491394,-0.0745442807674408,-0.6005651354789734,jumping
1761226598434578400,-0.9308202027309684,3.554119883787632,-1.7418752312660215,1.964172840118408,-0.0858751684427261,-0.5308868885040283,jumping
1761226598444592400,-0.302149959238246,2.2558546812176705,-2.1858698753654955,2.0756945610046387,0.0563165992498397,-0.4567269384860992,jumping
1761226598454605600,-0.1967195998650044,1.0727782848387957,-2.700953487166762,2.1784379482269287,0.3283368945121765,-0.4395682215690613,jumping
1761226598464618500,-0.4521957784727216,0.1040875664621591,-3.2075130162507293,2.3080615997314453,0.5275386571884155,-0.5020595788955688,jumping
1761226598474631400,-0.3088111706931143,-1.304008130136132,-3.20853768312335,2.3630685806274414,0.3603083193302154,-0.5645390152931213,jumping
1761226598484645400,0.8392094751998782,-3.024021073684096,-1.7634969882264733,2.157716989517212,-0.0549576058983802,-0.594830334186554,jumping
1761226598494658600,2.118924729470164,-4.637130224305391,0.4874766429513693,1.599135398864746,-0.3835465312004089,-0.6349912285804749,jumping
1761226598504671500,2.279031850926578,-5.710386063528061,2.23763513391614,0.8900237083435059,-0.2830846607685089,-0.6537728905677795,jumping
1761226598514684400,1.775372134937346,-6.077161858868599,2.252975910910964,0.2465663254261016,0.2789803445339203,-0.5604181289672852,jumping
1761226598524698400,1.945026836939901,-6.414578873255849,0.4103606700450182,-0.251779556274414,0.7179933786392212,-0.3355394899845123,jumping
1761226598534711600,2.9287194557458163,-6.543880960473418,-0.856231629410386,-0.5536391735076904,0.8565926551818848,-0.0597362853586673,jumping
1761226598544724500,3.973694956901669,-6.881531783616542,-1.3665519723325967,-0.6884646415710449,0.6999382972717285,0.2132603526115417,jumping
1761226598554738400,4.773468786031008,-7.81219116976261,-1.753071748062968,-0.7845852971076965,0.2397172302007675,0.4391185343265533,jumping
1761226598564751400,5.278732430085539,-8.670461611524225,-1.2775000624388455,-0.8970247507095337,-0.2464896887540817,0.6052095293998718,jumping
1761226598574764500,5.151640420132875,-9.30686332605183,-0.9512281269222498,-0.9751778841018676,-0.6116803288459778,0.7043639421463013,jumping
1761226598584777500,4.642438267585635,-9.841108734440803,-1.7948922434434291,-1.0074410438537598,-0.7393016815185547,0.7763062715530396,jumping
1761226598594791400,3.8262276829183097,-10.178576602232456,-3.427102108114957,-0.9801658391952516,-0.7373396754264832,0.791501522064209,jumping
1761226598604804600,2.6901225888118145,-9.644310151055455,-4.548585679411888,-0.899725079536438,-0.7975547909736633,0.7376377582550049,jumping
1761226598614817300,1.4762240609288215,-8.643259716343879,-4.937401457124948,-0.8453552722930908,-0.8446416258811951,0.6951882839202881,jumping
1761226598624830500,0.6645635407812893,-7.568572383013367,-5.017217336639762,-0.840112030506134,-0.7508459091186523,0.6624479293823242,jumping
1761226598634844400,-0.0068018620345741,-6.203049753728509,-5.1089732447952025,-0.8355653285980225,-0.5173772573471069,0.6139645576477051,jumping
1761226598644857300,-0.7559044383950531,-4.643690313473344,-4.944458974421024,-0.8041293621063232,-0.2939172685146332,0.6012452840805054,jumping
1761226598654870500,-1.114502187976986,-2.6898855651855467,-4.143605533361435,-0.7053146362304688,-0.1999236792325973,0.5744807720184326,jumping
1761226598664883500,-1.648898256883025,-1.1559575033068656,-3.0609348000615832,-0.4615443646907806,-0.2363738268613815,0.4752508699893951,jumping
1761226598674897400,-2.688234583108127,-0.0274368729799985,-2.3169535853028296,-0.0669580027461052,-0.2223903089761734,0.3302569687366485,jumping
1761226598684910600,-3.715106272296607,0.9128437434703112,-2.0658160934865477,0.3165470361709595,-0.1974024027585983,0.1344339400529861,jumping
1761226598694923500,-4.281106709125638,1.3230740651339292,-1.2493231847465038,0.5431113839149475,-0.2359334677457809,-0.1692467778921127,jumping
1761226598704937500,-4.64813501792252,1.226306466296315,0.730088298484683,0.5777655243873596,-0.2381835728883743,-0.5181094408035278,jumping
1761226598714950700,-4.815645547503233,1.6179875703126192,2.775224592036009,0.4325003623962402,-0.0836032181978225,-0.8375251293182373,jumping
1761226598724963300,-4.662186339628696,2.8040058653622864,4.2895407754719255,0.153386190533638,0.232108935713768,-1.0388789176940918,jumping
1761226598734976500,-4.060754816195368,4.211218933907151,5.211411290484667,-0.173117384314537,0.61292564868927,-1.1277631521224976,jumping
1761226598744990500,-3.208633836974204,5.671754427316785,5.746924526852369,-0.4566904902458191,0.937118649482727,-1.0803570747375488,jumping
1761226598755003400,-2.159752414420992,7.111633501666784,5.926748010039329,-0.640241801738739,1.043262958526611,-0.9173542857170104,jumping
1761226598765016600,-0.9067742873635144,8.018991507202387,6.114523329013585,-0.6571184992790222,0.9303723573684692,-0.6590961217880249,jumping
1761226598775029500,0.4399513600580394,8.527002404138445,5.902859184929728,-0.5337504148483276,0.6597719788551331,-0.3721072673797607,jumping
1761226598785043500,1.398679925738275,8.252026356095076,5.417079409024119,-0.2761585414409637,0.306514024734497,-0.1721805781126022,jumping
1761226598795056600,1.3367083304718137,7.542191156566143,4.8445057312846185,0.0681106969714164,-0.0666883811354637,-0.0764506533741951,jumping
1761226598805069600,0.5227342726849019,7.085339368981122,4.416304284122586,0.4106872081756592,-0.3392913937568664,-0.106226660311222,jumping
1761226598815082500,-0.4383078306347131,6.638243251734972,4.181742664054036,0.6406338810920715,-0.4600745439529419,-0.1272957324981689,jumping
1761226598825096400,-0.8580459853559732,6.190489547362923,4.201770137560367,0.7469589710235596,-0.4116140604019165,-0.041589081287384,jumping
1761226598835109400,-0.3125799486421048,6.149474230885505,4.479699774712324,0.6707555651664734,-0.3260314464569092,0.0489422567188739,jumping
1761226598845122600,0.0937147140730172,5.988359539821744,5.113973829561472,0.4436406195163727,-0.1959898024797439,0.091678537428379,jumping
1761226598855136500,-0.0923006094913929,5.644895061963796,5.802938675019145,0.1883470714092254,0.02429143153131,0.0558358505368232,jumping
1761226598865149400,-0.8578669755272567,5.5712265991628165,5.841583755233883,0.0223032422363758,0.05338566750288,-0.071878969669342,jumping
1761226598875162600,-1.6269184802651404,5.90078530126512,5.29975066819489,-0.039709448814392,-0.1660350412130355,-0.1918937414884567,jumping
1761226598885175600,-1.3537912749588488,5.536311937648057,4.872274028176069,0.013141244649887,-0.2920100390911102,-0.218187928199768,jumping
1761226598895189500,-0.426993605742231,4.580538568511605,3.3724703542172905,0.1691484451293945,-0.3529099524021148,-0.1645969748497009,jumping
1761226598905202400,0.2587218094654381,4.02011359372735,1.3677958349138497,0.4206254184246063,-0.2640740871429443,-0.0774713829159736,jumping
1761226598915215600,0.2937787289950996,3.3341075980752706,-0.6538976237297057,0.7597911953926086,-0.0573941208422184,0.0119147198274731,jumping
1761226598925228500,0.3595839110750705,2.0571248375087974,-2.662639830863476,1.0831743478775024,-0.0314852930605411,0.0116888843476772,jumping
1761226598935242500,0.5094108999270945,0.6552782644331455,-3.4465351228594776,1.4406543970108032,0.0887735113501548,-0.1202350258827209,jumping
1761226598945255400,-0.149349069141969,-1.098195634689927,-4.3319323487386105,1.7500104904174805,0.2734844982624054,-0.3193963170051574,jumping
1761226598955268400,-0.6681804891694336,-2.6491759536564348,-5.132828167635202,1.8471174240112305,0.5376704335212708,-0.5759211778640747,jumping
1761226598965281500,-0.3848977274864912,-4.784279518380761,-4.417227828708291,1.653617262840271,0.5947436094284058,-0.8671024441719055,jumping
1761226598975295500,0.5723875075176358,-6.781363436424732,-2.359005843612552,1.1509051322937012,0.2462753802537918,-1.1073485612869265,jumping
1761226598985308400,2.0465501058720053,-7.74238639665246,0.7267296357065439,0.4386549293994903,-0.2573747038841247,-1.147098422050476,jumping
1761226598995321600,4.119174856460094,-8.386989537814259,2.7101208362236617,-0.3484124839305877,-0.650743842124939,-0.7885990738868713,jumping
1761226599005334300,6.561511309710145,-7.897509153825045,2.6923908260047438,-1.0418871641159058,-0.9371899962425232,-0.1018915623426437,jumping
1761226599015348500,8.203869351169466,-6.515929123708605,0.9796966810375451,-1.5195749998092651,-1.0709853172302246,0.6515918374061584,jumping
1761226599025361700,7.995838010630011,-5.822874963110685,-1.83014855800271,-1.7398892641067505,-1.0093097686767578,1.3017418384552002,jumping
1761226599035374300,6.441629377266764,-5.431035453662276,-4.954467742738127,-1.7201926708221436,-0.711552619934082,1.7106233835220337,jumping
1761226599045388500,4.167646918684244,-5.264018260556459,-7.573544326207041,-1.531713604927063,-0.2689017057418823,1.895251750946045,jumping
1761226599055401500,1.5566713702149688,-5.652298616218567,-9.8088150690794,-1.1213051080703735,0.0020645698532462,1.7525193691253662,jumping
1761226599065414400,-1.1012109639231116,-6.731114427655935,-11.390384003055097,-0.5722500085830688,-0.0498782582581043,1.3600927591323853,jumping
1761226599075427600,-3.285110050672293,-8.356408521589636,-11.49845274810791,-0.0163009446114301,-0.3313099145889282,0.8656034469604492,jumping
1761226599085441500,-4.396784175616503,-8.879985820969939,-9.92537574814558,0.4176142811775207,-0.4792218804359436,0.3558033108711242,jumping
1761226599095454500,-4.858839961585402,-8.1192276589334,-8.160413071280717,0.6509042382240295,-0.4596155881881714,-0.0279429275542497,jumping
1761226599105467600,-4.434559487259388,-6.018541327595711,-6.068803195846081,0.6358845233917236,-0.2337808609008789,-0.21643827855587,jumping
1761226599115480300,-3.089951635709405,-3.6945676343977447,-3.58429874895215,0.3871037662029266,0.1994950771331787,-0.2278862744569778,jumping
1761226599125494500,-1.884562577496469,-1.7011480840802191,-1.3399287538230418,0.0129379089921712,0.7172516584396362,-0.1864456236362457,jumping
1761226599135507500,-1.159854803006351,0.1591466058611869,0.6933721405059099,-0.3486895859241485,1.1309590339660645,-0.1141451150178909,jumping
1761226599145520400,-0.6418614412382244,1.9617524924218652,2.3809067097753287,-0.6462157964706421,1.2908459901809692,-0.0236362554132938,jumping
1761226599155533600,0.0006101677875965,3.692625852680206,3.832669114142656,-0.8288997411727905,1.100471019744873,0.0355623960494995,jumping
1761226599165547300,0.3700095165647566,4.864797993206977,4.954528533014655,-0.8095244765281677,0.6052165031433105,0.0178451836109161,jumping
1761226599175560400,0.1300459643874317,5.38044859124124,5.3129783985584975,-0.6330740451812744,0.0218103229999542,-0.0490443333983421,jumping
1761226599185573400,-0.4812970775336027,5.56659426318705,4.999109433019161,-0.3743487596511841,-0.3984189033508301,-0.1453841924667358,jumping
1761226599195586600,-1.147759583804011,5.7527329208701845,4.42903458635807,-0.1368245780467987,-0.5649561285972595,-0.2693057358264923,jumping
1761226599205600500,-1.9547410062246025,6.225867734736204,3.98548067176342,0.0065136794000864,-0.5071412920951843,-0.4158054292201996,jumping
1761226599215613400,-2.6804712556302546,6.958740695503353,3.8188060084849593,0.0629840269684791,-0.2579379677772522,-0.5253618359565735,jumping
1761226599225626400,-3.0887171254783867,7.619083257588744,3.8469863933086392,0.1097981333732605,0.1230485364794731,-0.6035498976707458,jumping
1761226599235640600,-3.2177234446197747,7.803952333727478,3.6526188364624974,0.1486286967992782,0.4653925895690918,-0.6419726610183716,jumping
1761226599245653500,-2.9043969153940674,7.485444602471589,3.610791619080305,0.204625129699707,0.6325690746307373,-0.6397832632064819,jumping
1761226599255666400,-2.188722926709056,7.190704115772247,4.064801461237669,0.286006897687912,0.5319482088088989,-0.6035243272781372,jumping
1761226599265679400,-1.4598925193309784,7.306338327643274,4.728481643313169,0.3380919396877289,0.2987039685249328,-0.5539897680282593,jumping
1761226599275693300,-0.8824037431515753,7.336172324892878,5.250330511465668,0.3534024655818939,0.1262620836496353,-0.4966698586940765,jumping
1761226599285706500,-0.7605589862026274,7.280396077135203,5.240224712514877,0.3344274461269378,0.0746305733919143,-0.4217484891414642,jumping
1761226599295719400,-0.9712428870774804,7.472203428104519,4.8196027606964105,0.34422567486763,0.0423612222075462,-0.3083106875419616,jumping
1761226599305732600,-1.0412523889794945,7.486857976400851,4.387310244828463,0.3534154295921325,-0.0365149490535259,-0.1716630905866623,jumping
1761226599315746600,-0.8190604211404919,7.007600295740366,4.207515987735986,0.3759767711162567,-0.0420947074890136,-0.0457373037934303,jumping
1761226599325759500,-0.7097001749724149,6.351843307879567,3.692629359811544,0.413051426410675,0.0626578032970428,0.0652012005448341,jumping
1761226599335772400,-0.8309026884950697,5.916053013023734,2.920359623679518,0.5233935117721558,0.2331538796424865,0.1623122692108154,jumping
1761226599345785300,-0.820056154179573,5.398673983761668,1.9479425782561304,0.6860189437866211,0.3701953589916229,0.2359963506460189,jumping
1761226599355799600,-0.5547305625349283,4.277084614002704,1.2933733388751745,0.90900057554245,0.4739054143428802,0.2744054496288299,jumping
1761226599365812500,-0.1949829122655093,2.96422156175971,0.8315586681857705,1.1855744123458862,0.5566378831863403,0.2801879644393921,jumping
1761226599375825400,0.074963763308525,1.5237000978529451,0.2850160882815718,1.4455645084381104,0.5619677305221558,0.2340328395366668,jumping
1761226599385838600,0.5931712062187493,-0.5627414350330829,0.0968979472190141,1.6081669330596924,0.4278099536895752,0.1726613640785217,jumping
1761226599395852300,1.6688668398089703,-2.87179228438735,0.6532628329575061,1.6181855201721191,0.0773779451847076,-0.0304104946553707,jumping
1761226599405865500,2.299126544450224,-5.069205882552266,2.0689473772495983,1.0760838985443115,-0.9233317375183104,-0.4272955358028412,jumping
1761226599415878700,1.9969966781519355,-6.882006999912858,4.45193615399599,0.2560429573059082,-1.169754981994629,-0.5544221997261047,jumping
1761226599425892400,2.0849583085909487,-6.964243384572863,5.34109799310565,-0.5557937026023865,-0.3094858229160309,-0.3554726541042328,jumping
1761226599435905500,3.3864877736538648,-6.573453091916441,0.6497282290905714,-1.5062311887741089,0.2726181149482727,-0.0182549152523279,jumping
1761226599445918500,4.304020843984186,-7.208624972388148,-0.3256903362363577,-2.3630311489105225,0.6301735639572144,0.2626502513885498,jumping
1761226599455931400,3.904411869578064,-6.5802224399209015,-0.2246165646374225,-2.9631707668304443,0.6936428546905518,0.4474318325519562,jumping
1761226599465945600,3.356232920643687,-5.778892028999328,-1.5814806711703535,-3.23427152633667,0.4935971200466156,0.5808884501457214,jumping
1761226599475958300,3.231725374226272,-5.756860814455151,-3.6300188821196553,-3.129387140274048,0.2426065057516098,0.686031699180603,jumping
1761226599485971500,2.9177839279726148,-5.620317670068144,-6.175257491439581,-2.818058729171753,-0.1559544503688812,0.7907639741897583,jumping
1761226599495984600,2.876623942327499,-5.439665334841608,-8.35438782941699,-2.2674331665039062,-0.5823835134506226,0.9330002665519714,jumping
1761226599505998300,2.8997140182748438,-5.613647106263041,-9.653392452177403,-1.5701125860214231,-0.8466114401817322,1.1029304265975952,jumping
1761226599516011500,2.612986742161214,-5.951659163933992,-11.420156040984391,-0.9540137648582458,-0.9506879448890686,1.1403391361236572,jumping
1761226599526024400,1.154091271043569,-6.5744678219169375,-11.340331393641232,-0.5365832448005676,-0.9139429926872252,0.934822142124176,jumping
1761226599536037400,-1.3454938406042751,-6.644338646000623,-9.880599033308028,-0.3354049921035766,-0.7537051439285278,0.6170535683631897,jumping
1761226599546051600,-3.171270905524492,-6.402156029534339,-7.853923694598675,-0.3540036976337433,-0.4608530104160309,0.3690652847290039,jumping
1761226599556064300,-3.44734205532819,-5.772922306939959,-5.6939440472930665,-0.4795531630516052,-0.0002120332792401,0.2807278335094452,jumping
1761226599566077400,-2.729149361820519,-4.530169732755423,-4.02813440309763,-0.5752216577529907,0.3881679475307464,0.3049996197223663,jumping
1761226599576090400,-1.841556525593251,-3.1231787825286386,-2.9289830751180648,-0.635696530342102,0.5588598251342773,0.3274780809879303,jumping
1761226599586104300,-1.4282783606663343,-1.8719412885934112,-1.6770266192585228,-0.6203241944313049,0.7732384204864502,0.3552338182926178,jumping
1761226599596117500,-1.365671097844839,-0.7671978396952152,-0.988699487182498,-0.4946592450141907,0.8706881999969482,0.3623704314231872,jumping
1761226599606130400,-1.333002900082618,0.2902911060750484,-0.4443500334084033,-0.2883691787719726,0.7955532073974609,0.3211601674556732,jumping
1761226599616143400,-1.3774556436628105,0.944647579488158,0.3742448160469532,-0.0644225478172302,0.6663026809692383,0.2746454775333404,jumping
1761226599626157600,-1.302863928537071,1.3583850324898958,1.222757249382138,0.1475392431020736,0.5248262286186218,0.2405652701854705,jumping
1761226599636170500,-1.1035520471565423,2.0508336284101008,2.060530846560001,0.314556360244751,0.3885879516601562,0.2326013743877411,jumping
1761226599646183400,-0.8456476184885948,2.7783582138866185,2.9103555315375327,0.4116901159286499,0.2952694594860077,0.2550758123397827,jumping
1761226599656196400,-0.5490228524126112,3.3093326377809045,3.784001821607351,0.4372181892395019,0.2267620265483856,0.3166365921497345,jumping
1761226599666210300,-0.3584442395206541,3.813689103862643,4.528421427783369,0.4107610285282135,0.2557505369186401,0.4047659337520599,jumping
1761226599676223500,-0.2260773579049855,4.373782654735446,4.948675715333224,0.3694157898426056,0.4012092053890228,0.5001046657562256,jumping
1761226599686236400,-0.1802643953548744,4.777086976528167,5.037458745157719,0.3199752867221832,0.5539675354957581,0.6206044554710388,jumping
1761226599696250400,-0.1383849728614092,5.084369549414515,5.212070046654343,0.2489158511161804,0.6224978566169739,0.682744562625885,jumping
1761226599706263600,-0.0893881561107933,4.972584414187073,5.676138926011324,0.1832569390535354,0.5392911434173584,0.6277116537094116,jumping
1761226599716276500,-0.6315699104569852,4.50977167237103,6.2770274286091325,0.235335573554039,0.2015562951564788,0.4995321333408355,jumping
1761226599726289400,-1.239349633873254,4.758020457008481,6.557516102594136,0.3569333851337433,-0.188024491071701,0.4002132713794708,jumping
1761226599736303400,-1.5443597317829727,4.782860299232602,6.144656601470708,0.4821498095989227,-0.2716139256954193,0.3527200818061828,jumping
1761226599746316500,-1.5720219379514455,4.272856767174601,5.169935370758176,0.5851592421531677,-0.2849598228931427,0.3408418297767639,jumping
1761226599756329500,-1.257366205948591,3.613780279502272,4.378333742168546,0.6397569179534912,-0.3054927885532379,0.3133023679256439,jumping
1761226599766342400,-1.234399171859026,2.9858892036885023,4.230288960558176,0.6485645174980164,-0.2187626659870147,0.2002807408571243,jumping
1761226599776356400,-1.6479079306714235,2.243356434172392,3.8945132836371656,0.5579835176467896,-0.0281891450285911,0.0016721637221053,jumping
1761226599786369300,-2.272359971947223,1.2251602188706396,3.747401398962736,0.3865734040737152,0.1642830967903137,-0.2367313504219055,jumping
1761226599796382500,-2.4180125977240503,0.1078197387278079,3.83639134953618,0.0990699753165245,0.3084190785884857,-0.5041951537132263,jumping
1761226599806395600,-2.0080252910360694,-1.297557346561551,4.043525448974966,-0.243066057562828,0.3677026331424713,-0.7588754296302795,jumping
1761226599816409300,-1.2851836026787755,-2.9592472804784773,3.9396448032617566,-0.6475965976715088,0.2284526526927948,-1.0089486837387085,jumping
1761226599826422500,-0.5363370469059795,-4.474378871950507,4.001317123320699,-1.108802318572998,-0.0356572903692722,-1.2486472129821775,jumping
1761226599836435500,-0.0937099648326635,-5.430330520263314,3.9336511158049103,-1.6460111141204834,-0.1743418127298355,-1.461843490600586,jumping
1761226599846448400,-0.0728476479373872,-5.285679472744465,3.1176246555328366,-2.132331609725952,-0.0296986140310764,-1.584195256233215,jumping
1761226599856462600,-0.3197236098516732,-4.271342270958424,1.202628653588891,-2.544528007507324,0.3385940790176391,-1.6159939765930176,jumping
1761226599866475300,-0.3484581944920122,-3.186481334137917,-1.0200321985572576,-2.7978549003601074,0.7997263073921204,-1.557694673538208,jumping
1761226599876488400,-0.1293332130081951,-2.2389713509559632,-2.9683260744690894,-2.8884987831115723,1.0319061279296875,-1.496566891670227,jumping
1761226599886501600,-0.0524316135048866,-1.251131695473194,-4.1056607103705405,-2.768890380859375,1.2606836557388306,-1.4335192441940308,jumping
1761226599896515300,0.1257994859240949,-0.2750841845929622,-5.25083261576891,-2.461679697036743,1.1833369731903076,-1.2925843000411987,jumping
1761226599906528500,0.6312449162863194,0.7029717435002326,-6.154354404142499,-1.9579167366027832,0.7773594260215759,-1.122593641281128,jumping
1761226599916541400,1.3491400881521405,1.3790028731048107,-6.462239619097113,-1.340755820274353,0.3462502360343933,-0.9462690949440002,jumping
1761226599926554400,1.5866970906443894,1.377370303466916,-7.236169397395849,-0.6700363755226135,0.0346814021468162,-0.7461693286895752,jumping
1761226599936568600,1.1336303745560348,1.8937515538632868,-7.714269140192866,0.0249623097479343,-0.2656323611736297,-0.4847204387187958,jumping
1761226599946581200,1.085499673115462,2.6837521769970656,-7.77533998722732,0.7009577751159668,-0.4594929218292236,-0.1040380671620369,jumping
1761226599956594400,1.5748315885446964,2.974323269057274,-7.531645212632418,1.2892855405807495,-0.5488973259925842,0.3444620072841644,jumping
1761226599966607400,1.9407472599245608,2.8621751457363365,-6.819764771011472,1.7260700464248655,-0.5448426604270935,0.6967101097106934,jumping
1761226599976621300,1.2689894237250088,2.277371516498923,-5.304818472978472,2.011251926422119,-0.5175824761390686,0.8437941074371338,jumping
1761226599986634500,-0.1690977987721562,1.4546756614655256,-3.3574949034035204,2.10904312133789,-0.5606348514556885,0.7837201356887817,jumping
1761226599996647400,-1.4339461771696804,0.7857324442952871,-1.5848697290867566,2.1187562942504883,-0.6030105948448181,0.6745195388793945,jumping
1761226600006660400,-2.128956732532382,0.2230418626666069,-0.1021568906605243,2.0176985263824463,-0.5429914593696594,0.5743340849876404,jumping
1761226600016674600,-2.333199494443834,-0.0822094966530799,0.7166489711970091,1.826104760169983,-0.1926945298910141,0.4732708036899566,jumping
1761226600026687500,-2.575259653574228,-0.1923848585963249,0.8998065672427416,1.5417108535766602,0.2005156129598617,0.3832905888557434,jumping
1761226600036700400,-2.5955744195893407,-0.1813853256762027,1.4992097997188567,1.2719544172286987,0.6053739190101624,0.3263029158115387,jumping
1761226600046713300,-2.203334951037913,-0.1677262181580066,2.088088715571165,1.048389554023743,0.908237636089325,0.2812363803386688,jumping
1761226600056727300,-1.2216025263890624,-0.72556176097095,2.385757072415948,0.8957237601280212,1.185974359512329,0.2049202173948288,jumping
1761226600066740500,-0.2918637622192502,-1.6712164716750382,2.7224785057544705,0.7058561444282532,0.9738095998764038,0.0045772669836878,jumping
1761226600076753400,0.2366781738311052,-2.822863126045465,3.526647939494252,0.4562683999538421,0.7405053973197937,-0.1759771704673767,jumping
