timestamp,acc_x,acc_y,acc_z,gyr_x,gyr_y,gyr_z,activity
1761304478177791200,2.585794448852539,0.906123161315918,-3.3044443130493164,2.112844228744507,-1.290414810180664,0.4035409688949585,jumping
1761304478187927600,2.756751537322998,1.217822551727295,-3.400629997253418,1.7481684684753418,-0.8866447806358337,0.2141783237457275,jumping
1761304478198063900,2.438079357147217,1.1928167343139648,-2.786334991455078,1.3779950141906738,-0.3503209054470062,0.0816244632005691,jumping
1761304478218336800,0.0200088024139404,1.221906661987305,-1.7802448272705078,,,,jumping
1761304478228473000,-0.4132353067398071,1.366971492767334,-2.533027648925781,0.8275453448295593,-1.0698989629745483,-0.0417666807770729,jumping
1761304478238609400,-1.4194669723510742,1.2276768684387207,-2.211500644683838,1.0016367435455322,-1.697849988937378,0.0162638090550899,jumping
1761304478248745700,-1.972841501235962,1.191802978515625,0.3217382431030273,1.2338351011276243,-1.4260228872299194,0.0913980230689048,jumping
1761304478258882000,-0.7884725332260132,1.087822437286377,2.030789375305176,1.3486744165420532,-0.721716046333313,0.064520739018917,jumping
1761304478269018400,0.4167464971542358,0.6108493804931641,1.1011667251586914,1.2668209075927734,-0.324054479598999,-0.0319931246340274,jumping
1761304478279155000,1.1277189254760742,-0.1459479331970214,-1.197315692901611,1.129380226135254,-0.1365243643522262,-0.1492757946252823,jumping
1761304478289291300,1.1620347499847412,-0.2622237205505371,-1.9016780853271484,0.9753703474998474,-0.0247393138706684,-0.2506764531135559,jumping
1761304478299427600,0.7938945889472961,0.1238598823547363,-1.852475643157959,0.8562551736831665,0.1561478376388549,-0.3019876182079315,jumping
1761304478309564000,0.4498118758201599,0.3592715263366699,-0.956984043121338,0.7872294187545776,0.5330405831336975,-0.3166479468345642,jumping
1761304478319700200,0.6220479607582092,0.2985539436340332,-0.5491838455200195,0.7963921427726746,0.9942302703857422,-0.2891598343849182,jumping
1761304478329836800,0.7268911600112915,0.1443586349487304,-0.4383020401000976,0.7707365155220032,1.2373474836349487,-0.2677801549434662,jumping
1761304478339973000,1.172075271606445,0.1173872947692871,-1.635624885559082,0.6803311109542847,1.2465101480484009,-0.287938117980957,jumping
1761304478350109400,0.935000777244568,0.0597467422485351,-2.7216506004333496,0.5960342288017273,1.1768735647201538,-0.1712663024663925,jumping
1761304478360245800,-0.8311134576797485,-0.0707383155822753,-2.253779411315918,0.6925480961799622,1.1994749307632446,0.0370326153934001,jumping
1761304478370382000,-0.4099039435386657,-0.0421414375305175,-0.2811617851257324,0.9833113551139832,1.2831610441207886,0.2282278090715408,jumping
1761304478380518700,-0.2863290905952453,-0.1450724601745605,0.6337423324584961,1.3682215213775637,1.2404017448425293,0.3846046924591064,jumping
1761304478390655000,-0.2282952666282653,-0.3084216117858886,0.5380887985229492,1.7335081100463867,1.164656639099121,0.4976114630699157,jumping
1761304478400791300,-0.2934532761573791,-0.5435919761657715,0.0686292648315429,2.012054443359375,0.9160417914390564,0.5996229648590088,jumping
1761304478410927600,-0.5977411866188049,-0.5098962783813477,-0.702794075012207,2.291822671890259,0.4670690894126892,0.6600968241691589,jumping
1761304478421064000,-0.2037354111671447,-0.1162652969360351,-0.2869458198547363,2.6955926418304443,0.1396549493074417,0.6295544505119324,jumping
1761304478431200500,0.6721704006195068,0.2242627143859863,1.0133886337280271,3.156782388687134,-0.0161874517798423,0.5012765526771545,jumping
1761304478441336800,1.3605114221572876,0.2803797721862793,1.3338336944580078,3.5184037685394287,-0.0894891247153282,0.3503972589969635,jumping
1761304478451473200,1.26344633102417,0.0394830703735351,0.595738410949707,3.688830137252808,-0.2379250079393386,0.2306711971759796,jumping
1761304478461609500,0.8475439548492432,-0.1053438186645507,-0.5089006423950195,3.693717002868652,-0.3649812340736389,0.1592020690441131,jumping
1761304478471745800,0.5640960931777954,-0.469339370727539,-0.8257803916931152,3.553222179412842,-0.2678565084934234,0.179360032081604,jumping
1761304478481882000,0.040005624294281,-1.0807409286499023,-0.9750347137451172,3.316824197769165,-0.0846023485064506,0.2819823622703552,jumping
1761304478492018700,-0.2463701963424682,-1.5569024085998535,-0.7998313903808594,3.0688202381134038,0.2221193313598632,0.408427745103836,jumping
1761304478502155000,-0.0475440621376037,-1.8742966651916504,-0.4096217155456543,2.84402847290039,0.6362738013267517,0.5440358519554138,jumping
1761304478512291300,0.1912126392126083,-1.94368314743042,-0.8547348976135254,2.64489221572876,0.8909971117973328,0.6106181740760803,jumping
1761304478522427600,0.8148669004440308,-1.4164323806762695,-1.5052814483642578,2.470190048217773,1.0198858976364136,0.5825192332267761,jumping
1761304478532564200,1.1993610858917236,-0.7545642852783203,-2.03411078453064,2.385282278060913,0.9307021498680116,0.5196019411087036,jumping
1761304478542700500,0.96380352973938,-0.3200302124023437,-2.489441156387329,2.376730442047119,0.6179483532905579,0.4548521339893341,jumping
1761304478552836900,0.6169479489326477,-0.3928546905517578,-3.086684465408325,2.3406903743743896,0.2496074587106704,0.4444677233695984,jumping
1761304478562973200,0.2664362490177154,-0.6225996017456055,-3.593771457672119,2.2997636795043945,-0.0290152449160814,0.4646256864070892,jumping
1761304478573109500,0.2984331250190735,-0.917027473449707,-3.100162982940674,2.2533392906188965,-0.160958245396614,0.4646256864070892,jumping
1761304478583246000,0.8552635312080383,-1.17730712890625,-2.427642822265625,2.1348347663879395,-0.1017060652375221,0.5409815907478333,jumping
1761304478593382400,0.5486393570899963,-1.7047271728515625,-2.2118844985961914,1.8892742395401,0.0430647321045398,0.6637619137763977,jumping
1761304478603518700,0.1159570515155792,-1.9243159294128416,-2.6880247592926025,1.6088953018188477,0.1646996885538101,0.7474479675292969,jumping
1761304478613655000,0.0228959769010543,-1.676142692565918,-2.8926727771759038,1.420754313468933,0.2263952642679214,0.8054784536361694,jumping
1761304478623791600,0.2807604670524597,-1.3619880676269531,-2.5072388648986816,1.3443984985351562,0.2178433984518051,0.859233021736145,jumping
1761304478633928000,0.5126752853393555,-1.255388259887695,-2.2891180515289307,1.346841812133789,0.1836359500885009,0.8512920141220093,jumping
1761304478654200600,1.0747690200805664,-0.3537683486938476,-2.920989751815796,1.2558256387710571,-0.1591257154941558,0.6491015553474426,jumping
1761304478664337000,1.4241228103637695,0.3810691833496094,-3.5496363639831543,1.105557203292847,-0.3497100472450256,0.4536304473876953,jumping
1761304478674473200,1.883998155593872,0.7853336334228516,-3.242070198059082,0.894738495349884,-0.3906368315219879,0.2777064442634582,jumping
1761304478684609800,2.228628396987915,0.4964246749877929,-3.172659158706665,0.659562349319458,-0.3576510846614837,0.1170536056160926,jumping
1761304478694746000,2.5684430599212646,0.2445240020751953,-2.958617210388184,0.4769189953804016,-0.2434226274490356,-0.0594812519848346,jumping
1761304478704882400,2.8851842880249023,0.4664087295532226,-2.071560859680176,0.3187095522880554,0.1317139416933059,-0.237237811088562,jumping
1761304478715018800,2.840249538421631,0.5514001846313477,-1.1104167699813845,0.1415638476610183,0.5159368515014648,-0.3978906273841858,jumping
1761304478725155300,2.226172924041748,0.5299854278564453,-0.7291477918624878,-0.0258082970976829,0.7437828779220581,-0.5200600624084473,jumping
1761304478735291600,0.988693118095398,0.5004167556762695,-0.3776864409446716,0.1421747058629989,0.4853945076465606,-0.5121190547943115,jumping
1761304478745428000,-0.1552107334136963,0.4101152420043945,0.469498336315155,0.7206470370292664,-0.2721324563026428,-0.4162160456180572,jumping
1761304478755564300,-0.9480078220367432,-0.0512380599975585,0.5979873538017273,1.157479166984558,-1.0973870754241943,-0.2653367817401886,jumping
1761304478765700600,-0.7995693683624268,-0.8673095703125,-1.2633512020111084,1.110443949699402,-1.678913712501526,-0.2042520493268966,jumping
1761304478775837200,-0.0237639546394348,-0.7504005432128906,-4.429239749908447,0.7175928354263306,-1.6343218088150024,-0.2708344161510467,jumping
1761304478785973500,0.8027089238166809,-0.2615337371826172,-5.777828216552734,0.188599094748497,-1.1352596282958984,-0.3697916567325592,jumping
1761304478796109800,1.1146423816680908,-0.4223842620849609,-5.177128314971924,-0.1870719790458679,-0.6948387622833252,-0.4082750380039215,jumping
1761304478806246100,0.9650905728340148,-0.4816179275512695,-2.373975276947021,-0.244491621851921,-0.634364902973175,-0.3856737017631531,jumping
1761304478816382700,0.4195092916488647,-0.5565404891967773,-0.4148361980915069,-0.0972774252295494,-0.9086353182792664,-0.2610608339309692,jumping
1761304478826519000,-0.2187687754631042,-1.3705205917358398,0.927364706993103,0.2710634768009186,-1.595227599143982,-0.1077381819486618,jumping
1761304478836655400,0.06014084815979,-1.5090398788452148,1.6516826152801514,0.7792884111404419,-2.4021568298339844,-0.0912453085184097,jumping
1761304478846791700,0.4235476851463318,-0.1699075698852539,1.6445622444152832,0.5587725043296814,-1.268424391746521,-0.0087809292599558,jumping
1761304478856928000,-1.290475606918335,0.2903318405151367,-3.625943660736084,-0.3855973184108734,0.389491468667984,0.1750840991735458,jumping
1761304478867064600,0.1694048643112182,-1.113194465637207,-4.264204025268555,-0.4815003573894501,-0.3674246370792389,0.1671430766582489,jumping
1761304478877201000,1.0229287147521973,-1.3573503494262695,-1.109006404876709,-0.362995982170105,-0.9135220646858216,0.2477749139070511,jumping
1761304478887337200,-0.310743898153305,-0.4311132431030273,-1.2293853759765625,-0.5260922312736511,-0.8328902125358582,0.4304182529449463,jumping
1761304478907610000,-0.0339788198471069,2.306283950805664,3.758630990982056,-0.1473668962717056,0.6124507188796997,0.2654894888401031,jumping
1761304478917746400,0.3293294310569763,1.5691394805908203,4.0395050048828125,-0.0679567605257034,0.6210026144981384,0.278928130865097,jumping
1761304478927882800,-0.3411904573440552,1.2535953521728516,-2.1922435760498047,-0.1345391124486923,0.3839938640594482,0.3717769086360931,jumping
1761304478938019000,-0.600296139717102,0.6768074035644531,-2.1275346279144287,-0.1076618283987045,0.2648786306381225,0.3754419982433319,jumping
1761304478948155400,-0.0883322358131408,-0.036163330078125,-1.0049790143966677,-0.0545181185007095,0.2074590027332306,0.2868691384792328,jumping
1761304478958292000,0.127526581287384,-0.4550485610961914,-0.7101342678070068,-0.0172564350068569,0.1488176584243774,0.2520508468151092,jumping
1761304478968428300,-0.1101735830307006,-0.3679561614990234,-0.7355737686157227,0.0047340663149952,0.0797919258475303,0.1909661293029785,jumping
1761304478978564600,0.4096822142601013,-0.1593093872070312,-0.7103961706161499,0.0108425384387373,0.0656660795211792,0.1219403818249702,jumping
1761304478988701000,0.5731141567230225,-0.1238470077514648,-0.525967001914978,0.0193943995982408,0.0516165941953659,0.0767376869916915,jumping
1761304478998837500,0.5937246084213257,0.0671319961547851,-0.6183499097824097,-0.0019852535333484,0.0865112394094467,0.0199288912117481,jumping
1761304479008973800,0.7187881469726562,-0.0307283401489257,-0.6775286197662354,-0.0123696569353342,0.0681858286261558,-0.0087809292599558,jumping
1761304479019110100,0.4882625937461853,-0.3242855072021484,-0.4656602442264557,-0.0087045738473534,0.0577250644564628,-0.0191653333604335,jumping
1761304479029246500,0.2847737073898315,-0.6123132705688477,-0.379457950592041,-0.0117588099092245,0.0473406612873077,-0.0045049986802041,jumping
1761304479039382800,-0.0421575307846069,-0.806971549987793,-0.4152339994907379,-0.0135913519188761,0.0503949001431465,0.0437519364058971,jumping
1761304479059655700,-0.429704874753952,-0.8587303161621094,-0.3652340471744537,0.008399149402976,0.0198525357991457,0.149428516626358,jumping
1761304479069792000,-0.1494492292404174,-0.5240354537963867,-0.4243240356445312,0.0151184694841504,0.0253501608967781,0.1598129123449325,jumping
1761304479079928300,-0.0845377445220947,-0.2660303115844726,-0.2192691564559936,0.0206160955131053,0.0302369389683008,0.1763057857751846,jumping
1761304479090065000,-0.0110873579978942,0.1030654907226562,-0.256449431180954,0.0102316914126276,0.0033596600405871,0.1543152928352356,jumping
1761304479100201200,0.433123767375946,0.2738609313964844,-0.5104960799217224,-0.0050394898280501,-0.0009162708884105,0.1133885234594345,jumping
1761304479110337500,0.4852411150932312,0.2056112289428711,-0.4443538188934326,-0.0056503373198211,-0.0143549107015132,0.0785702317953109,jumping
1761304479120473900,0.3587473630905151,0.0998086929321289,-0.5208508372306824,0.0206160955131053,-0.0253501608967781,0.0571905747056007,jumping
1761304479130610200,0.497382640838623,0.3098878860473633,-0.2954417765140533,0.0218377895653247,-0.0180199947208166,0.0022143214009702,jumping
1761304479140746800,0.8506733775138855,0.391697883605957,-0.3336286842823028,-0.0038177953101694,0.0259610079228878,-0.06986565887928,jumping
1761304479150883000,1.022432804107666,0.5269765853881836,-0.3238368630409241,-0.0221432130783796,0.0626118406653404,-0.1126249656081199,jumping
1761304479161019400,0.3802416920661926,0.4950170516967773,-0.4676276445388794,-0.0600157417356967,0.0938414111733436,-0.1236202120780944,jumping
1761304479171155700,0.4934009313583374,0.2829351425170898,-0.4810685813426971,-0.0734543800354003,0.1023932695388794,-0.1456107199192047,jumping
1761304479181292300,0.2808440327644348,0.2910776138305664,-0.2984324097633362,-0.0813953951001167,0.118275299668312,-0.1480541080236435,jumping
1761304479211701200,0.4178270101547241,-0.2597761154174804,-0.3216991126537323,-0.0716218426823616,0.1127776727080345,-0.2024195045232772,jumping
1761304479221837800,0.3284983038902282,-0.4676179885864258,-0.2215713560581207,-0.0606265887618064,0.1268271654844284,-0.1621035933494568,jumping
1761304479231974100,-0.1021749377250671,-0.518773078918457,-0.3489830791950226,-0.0496313385665416,0.1158319115638732,-0.0863585323095321,jumping
1761304479242110500,0.1050450205802917,-0.3391571044921875,-0.4549313187599182,-0.0368035472929477,0.0999498814344406,-0.0674222633242607,jumping
1761304479252246800,0.3939023017883301,-0.2725563049316406,-0.3746905326843261,-0.0117588099092245,0.0913980230689048,-0.0466534607112407,jumping
1761304479262383000,0.3689039945602417,-0.3155164718627929,-0.382165253162384,-0.0038177953101694,0.0865112394094467,-0.017943637445569,jumping
1761304479272519700,0.3204613924026489,-0.3151931762695312,-0.4396635890007019,-0.0050394898280501,0.0956739485263824,0.0058794049546122,jumping
1761304479282656000,0.4159833192825317,-0.2601604461669922,-0.3878225684165954,-0.0074828788638114,0.1048366576433181,0.0193180441856384,jumping
1761304479292792300,0.3496127128601074,-0.1035194396972656,-0.4077659845352173,-0.0093154208734631,0.095063105225563,0.0156529601663351,jumping
1761304479302928600,0.545904278755188,0.2107458114624023,-0.5254688858985901,-0.0398577824234962,0.0846787020564079,-0.017943637445569,jumping
1761304479313065200,0.5494940876960754,0.2232294082641601,-0.5469977259635925,-0.0612374395132064,0.0852895453572273,-0.0301605835556983,jumping
1761304479323201500,0.2347875833511352,0.010075569152832,-0.4799330234527588,-0.0795628577470779,0.0840678513050079,-0.0295497365295887,jumping
1761304479333337900,0.0934008955955505,-0.0514383316040039,-0.4513375163078308,-0.1027750521898269,0.0840678513050079,-0.0032833039294928,jumping
1761304479343474200,-0.0869682431221008,-0.1241207122802734,-0.5140242576599121,-0.1107160672545433,0.0828461572527885,0.018096350133419,jumping
1761304479353610500,0.0741763114929199,-0.0156593322753906,-0.5310560464859009,-0.1327065676450729,0.0999498814344406,0.0144312661141157,jumping
1761304479363747000,0.1761310696601867,0.0112419128417968,-0.5879457592964172,-0.1754658818244934,0.1139993667602539,0.0003817795368377,jumping
1761304479373883400,0.2180141806602478,-0.1879024505615234,-0.5031336545944214,-0.1840177327394485,0.1592020690441131,-0.0228304155170917,jumping
1761304479384019700,0.293667197227478,-0.5185356140136719,-0.0315384566783905,-0.2060082405805587,0.1616454571485519,-0.030771430581808,jumping
1761304479394156000,0.0013206005096435,-0.7110519409179688,-0.5334948301315308,-0.2640387415885925,0.1225512325763702,-0.0405449867248535,jumping
1761304479404292600,-0.002815306186676,-0.6979827880859375,-0.8310146927833557,-0.2750339806079864,0.1475959718227386,-0.0723090469837188,jumping
1761304479414429000,0.4238617420196533,-0.9770669937133788,-0.3068598508834839,-0.3269560039043426,0.1463742703199386,-0.0790283605456352,jumping
1761304479424565200,0.3883904814720154,-1.0659589767456057,-0.8235825300216675,-0.3837648034095764,0.1585912257432937,-0.0741415843367576,jumping
1761304479434701600,0.3206503391265869,-1.3547639846801758,-0.5408411026000977,-0.439351886510849,0.1750840991735458,-0.0625354871153831,jumping
1761304479444838000,0.3170117139816284,-1.5322761535644531,-0.4798747301101684,-0.4931064546108246,0.1866901963949203,-0.0552053228020668,jumping
1761304479454974500,0.2415431141853332,-1.7301702499389648,-0.397532194852829,-0.5053234100341797,0.2001288384199142,-0.0649788752198219,jumping
1761304479465110800,0.2034452557563781,-1.8636245727539065,-0.1136059165000915,-0.5022691488265991,0.1964637488126754,-0.0973537787795066,jumping
1761304479475247000,0.1032362580299377,-1.987898826599121,-0.2015495300292968,-0.4863871335983276,0.1555369794368744,-0.0979646295309066,jumping
1761304479485383700,-0.1531151533126831,-2.118155002593994,-0.3591294288635254,-0.4808894991874695,0.1036149635910987,-0.0771958231925964,jumping
1761304479495520000,-0.2211987972259521,-2.0045695304870605,-0.5892852544784546,-0.4869979918003082,0.0412321910262107,-0.0435992218554019,jumping
1761304479505656300,-0.2126659154891967,-1.7961997985839844,-0.6866267919540405,-0.4869979918003082,-0.0058030490763485,0.0009926267666742,jumping
1761304479515792600,-0.1440221071243286,-1.5771160125732422,-0.6932786107063293,-0.4686725735664367,-0.0345128700137138,0.0400868505239486,jumping
1761304479525929200,0.1116532683372497,-1.3044986724853516,-0.8235912322998047,-0.4692834019660949,-0.027793550863862,0.0687966719269752,jumping
1761304479536065500,0.4254798293113708,-1.0953187942504885,-0.9857988357543944,-0.4637857675552368,-0.021074229851365,0.0895654782652854,jumping
1761304479546201900,0.4760532975196838,-1.0136089324951172,-0.9155430793762208,-0.4314108788967132,-0.0186308417469263,0.1103342846035957,jumping
1761304479556338200,0.5253067016601562,-1.0015993118286133,-0.5876908302307129,-0.3910949528217315,0.0076355906203389,0.1237729266285896,jumping
1761304479566474800,0.5639876127243042,-1.0945558547973633,-0.3795570135116577,-0.3489464819431305,0.0387887991964817,0.1353790163993835,jumping
1761304479576611000,0.7001465559005737,-1.170384407043457,-0.4707091450691223,-0.328788548707962,0.0601684562861919,0.1359898746013641,jumping
1761304479586747400,0.6810936331748962,-1.2436952590942385,-0.6743947267532349,-0.2933593988418579,0.0583359114825725,0.1335464864969253,jumping
1761304479596883700,0.3793891072273254,-1.3600006103515625,-0.5738757848739624,-0.2365505993366241,0.0393996499478817,0.1292705535888672,jumping
1761304479607020000,-0.0968870520591735,-1.4640998840332031,-0.4271113276481628,-0.1944021433591842,0.0296260919421911,0.1341573297977447,jumping
1761304479617156600,-0.3684114813804626,-1.4774928092956543,-0.3091025352478027,-0.1626380831003189,0.0186308417469263,0.1384332627058029,jumping
1761304479627293000,-0.5933078527450562,-1.283919334411621,-0.8596997261047363,-0.1595838516950607,-0.0082464376464486,0.1384332627058029,jumping
1761304479637429200,-0.4317132830619812,-1.0541563034057615,-0.7567497491836548,-0.1296523362398147,-0.0271827038377523,0.1139993667602539,jumping
1761304479647565600,-0.4652903079986572,-1.0236053466796875,-0.4889446496963501,-0.1143811494112014,-0.0216850768774747,0.1048366576433181,jumping
1761304479657702100,-0.4948774874210357,-1.1125259399414062,-0.3857805728912353,-0.1003316640853881,-0.0100789796561002,0.0913980230689048,jumping
1761304479667838500,-0.3794708251953125,-1.006119728088379,-0.3327788114547729,-0.0930014923214912,0.0137440636754035,0.0724617540836334,jumping
1761304479677974800,-0.0417773723602294,-0.7746896743774414,-0.2282791137695312,-0.0954448878765106,0.0412321910262107,0.0321458354592323,jumping
1761304479688111000,0.0099450945854187,-0.6993656158447266,-0.099589467048645,-0.1064401343464851,0.0706292167305946,0.0187071971595287,jumping
1761304479698247400,-0.161808431148529,-0.7386064529418945,-0.1157742738723754,-0.119267925620079,0.0822353139519691,0.0150421140715479,jumping
1761304479708384000,-0.2928789854049682,-0.7560062408447266,-0.2468904256820678,-0.1296523362398147,0.0669641271233558,0.0217614341527223,jumping
1761304479718520300,-0.1075648665428161,-0.7088298797607422,-0.3901416063308716,-0.1418692767620086,0.0558925233781337,0.0297024473547935,jumping
1761304479728656600,0.0918450355529785,-0.6617488861083984,-0.2758523225784302,-0.1467560529708862,0.0418430380523204,0.0431410893797874,jumping
1761304479738793200,0.1959859132766723,-0.7076044082641602,-0.1005266904830932,-0.1498102843761444,0.027793550863862,0.0547471866011619,jumping
1761304479748929500,0.121675968170166,-0.8551979064941406,-0.1722861528396606,-0.1608055382966995,0.0174091476947069,0.071850910782814,jumping
1761304479759065900,0.1799734830856323,-0.8064289093017578,-0.2260627746582031,-0.1779092699289322,0.0064138961024582,0.0822353139519691,jumping
1761304479769202200,0.2705737352371216,-0.5982303619384766,-0.2236537933349609,-0.1913478970527649,0.0064138961024582,0.0895654782652854,jumping
1761304479779338800,0.2144196033477783,-0.2885112762451172,-0.042160153388977,-0.2121167033910751,-0.0082464376464486,0.0987281873822212,jumping
1761304479789475000,0.0201761722564697,0.0507411956787109,0.0623797178268432,-0.2365505993366241,-0.023517619818449,0.1005607321858406,jumping
1761304479799611400,-0.2304031252861023,0.4623365402221679,0.0826201438903808,-0.2695363461971283,-0.0516165941953659,0.0999498814344406,jumping
1761304479809747700,-0.3425161242485046,0.9339876174926758,0.0601195096969604,-0.2945810854434967,-0.0668877735733985,0.1085017472505569,jumping
1761304479819884000,-0.2235200405120849,1.4555435180664062,0.1729470491409301,-0.3025220930576324,-0.0900999680161476,0.1091125905513763,jumping
1761304479830020600,0.1295195817947387,1.97628116607666,0.1625213623046875,-0.2927485406398773,-0.1133121699094772,0.0895654782652854,jumping
1761304479840157000,0.2816210985183716,2.3890514373779297,0.1491907835006714,-0.2750339806079864,-0.1261399537324905,0.0761268362402916,jumping
1761304479850293200,0.1929785013198852,2.59708309173584,0.1701164245605468,-0.2670929729938507,-0.1365243643522262,0.0681858286261558,jumping
1761304479860429600,0.2359311580657959,2.9012937545776367,0.1463022232055664,-0.2591519355773926,-0.1255291104316711,0.0425302386283874,jumping
1761304479870566100,0.3693562746047973,3.165267944335937,0.2789833545684814,-0.2389939874410629,-0.1029277667403221,0.018096350133419,jumping
1761304479880702500,0.1773713827133178,3.432467460632324,0.3397305011749267,-0.2353289127349853,-0.0943759009242057,0.0034360159188508,jumping
1761304479890838800,0.0295472145080566,3.6931581497192383,0.3578908443450928,-0.2273878902196884,-0.0839914977550506,-0.0228304155170917,jumping
1761304479900975000,-0.0095605850219726,3.928717613220215,0.3423763513565063,-0.2286095917224884,-0.0754396393895149,-0.0295497365295887,jumping
1761304479911111700,-0.2018905282020568,4.203730583190918,0.3675646781921386,-0.226777046918869,-0.0754396393895149,-0.0185544863343238,jumping
1761304479921248000,-0.1988802552223205,4.703232765197754,0.4700076580047607,-0.2145601063966751,-0.0821589529514312,-0.0350473597645759,jumping
1761304479931384300,-0.0592907667160034,5.273566246032715,0.7667315006256104,-0.1937913000583648,-0.0846023485064506,-0.0448209159076213,jumping
1761304479941521000,-0.1238363981246948,5.695565223693848,0.9802572727203368,-0.1754658818244934,-0.0870457366108894,-0.0350473597645759,jumping
1761304479951657200,-0.0318697690963745,6.105810165405273,1.0060454607009888,-0.1595838516950607,-0.0900999680161476,-0.0252738054841756,jumping
1761304479961793500,0.333446741104126,6.666439056396484,0.9557335376739502,-0.1595838516950607,-0.1133121699094772,-0.0295497365295887,jumping
1761304479971929900,0.7738097906112671,6.952802658081055,1.0292110443115234,-0.1601946949958801,-0.0931542068719863,-0.0338256657123565,jumping
1761304479982066200,1.0493347644805908,6.992870330810547,1.2869179248809814,-0.166914016008377,-0.0516165941953659,-0.0197761803865432,jumping
1761304479992202800,1.0588843822479248,6.866570472717285,1.50506329536438,-0.1632489264011383,-0.0125223686918616,0.0144312661141157,jumping
1761304480002339000,0.9536224603652954,6.724274635314941,1.4804980754852295,-0.1443126648664474,0.0290152449160814,0.0272590592503547,jumping
1761304480012475400,1.2381393909454346,6.829702377319336,1.449233889579773,-0.112548604607582,0.0626118406653404,-0.0008399150101467,jumping
1761304480022611700,1.227828025817871,6.971558570861816,1.8262957334518437,-0.057572353631258,0.0387887991964817,-0.0252738054841756,jumping
1761304480032748300,0.964763879776001,6.909506797790527,1.8324066400527956,-0.0135913519188761,-0.0119115216657519,-0.0313822776079177,jumping
1761304480042884600,0.7805502414703369,7.025108337402344,1.1641281843185425,0.051158457994461,-0.0497840531170368,-0.0515402369201183,jumping
1761304480053021000,1.0274416208267212,7.200130462646484,1.1499987840652466,0.1488940119743347,-0.0754396393895149,-0.0704765021800994,jumping
1761304480063157200,1.114664077758789,7.365159034729004,1.289539456367493,0.2533488869667053,-0.0937650576233863,-0.0851368382573127,jumping
1761304480073293800,1.0602408647537231,7.570457458496094,1.271484136581421,0.3486410677433014,-0.1108687743544578,-0.1046839505434036,jumping
1761304480083430100,1.15969717502594,7.626105308532715,1.1549702882766724,0.4103366434574127,-0.1010952219367027,-0.1132358089089393,jumping
1761304480093566500,0.9262807369232178,7.599356651306152,1.1516876220703125,0.4848600029945373,-0.1102579310536384,-0.1248419061303138,jumping
1761304480103702800,0.6381256580352783,7.414969444274902,1.3059521913528442,0.533727765083313,-0.0980409830808639,-0.1340046226978302,jumping
1761304480113839400,0.259112000465393,7.116359710693359,1.3787204027175903,0.6045860648155212,-0.0907108187675476,-0.1376696974039077,jumping
1761304480123975700,0.1498175859451294,6.908673286437988,1.6760364770889282,0.6803311109542847,-0.0955975949764251,-0.1706554591655731,jumping
1761304480134112000,0.1570065021514892,6.627333641052246,1.6288514137268066,0.7475243210792542,-0.0876565799117088,-0.2066954374313354,jumping
1761304480144248300,0.3221182823181152,6.301586151123047,1.5846627950668335,0.7939487099647522,-0.0864348858594894,-0.258006602525711,jumping
1761304480154385000,0.4318106174468994,5.815594673156738,1.3396331071853638,0.8061656951904297,-0.0687203183770179,-0.3013767600059509,jumping
1761304480164521200,0.4627051949501037,4.955474853515625,1.1082828044891355,0.8550334572792053,-0.0595576092600822,-0.3245889544486999,jumping
1761304480174657500,0.4071285128593445,3.806114196777344,1.1616677045822144,0.9442171454429626,-0.0558925233781337,-0.3398601412773132,jumping
1761304480184793900,0.6433097124099731,2.415182113647461,1.000964641571045,0.973537802696228,-0.0131332157179713,-0.341081827878952,jumping
1761304480194930200,0.4484057426452636,0.5697183609008789,0.4587063789367676,0.9857547879219056,0.0137440636754035,-0.3270323574542999,jumping
1761304480205066800,0.2369110584259033,-1.5013542175292969,0.0435377359390258,0.9466605186462402,0.0357345640659332,-0.3166479468345642,jumping
1761304480215203000,-0.0370920896530151,-3.630033493041992,-0.4539282321929931,0.8495358228683472,0.0595576092600822,-0.3227564096450805,jumping
1761304480225339400,-0.1951871514320373,-5.673263072967529,-0.8396115303039551,0.7120952010154724,0.0522274412214756,-0.3490228652954101,jumping
1761304480235475700,-0.4753747880458832,-7.607759475708008,-1.2565124034881592,0.534338653087616,0.0412321910262107,-0.3838411569595337,jumping
1761304480245612300,-0.8609825968742371,-9.41270923614502,-1.4735716581344604,0.3559712469577789,0.0546708293259143,-0.3893387615680694,jumping
1761304480255748600,-1.3430432081222534,-11.200689315795898,-1.702665090560913,0.1867665499448776,0.0546708293259143,-0.3404709994792938,jumping
1761304480265885000,-1.3091928958892822,-11.151494979858398,-1.6874231100082395,0.07498150318861,0.0540599822998046,-0.2635042369365692,jumping
1761304480276021200,-1.4022958278656006,-13.332073211669922,-1.6787049770355225,-0.0319167710840702,0.0730726048350334,-0.1669903695583343,jumping
1761304480286157800,-1.308149814605713,-13.805150032043455,-1.5924546718597412,-0.1101052165031433,0.1048366576433181,-0.0826934501528739,jumping
1761304480296294100,-1.122072696685791,-13.870256423950195,-1.3360248804092407,-0.1889045089483261,0.1353790163993835,-0.0057266931980848,jumping
1761304480306430500,-1.2330536842346191,-13.60573387145996,-0.9365100860595704,-0.2481566965579986,0.1353790163993835,0.048027865588665,jumping
1761304480316566800,-1.070425033569336,-12.877399444580078,-0.5471522212028503,-0.3086305856704712,0.1402658075094223,0.0584122687578201,jumping
1761304480326703400,-0.8161797523498535,-11.825750350952148,-0.2924391329288482,-0.3544441163539886,0.1048366576433181,0.0388651564717292,jumping
1761304480336839700,-0.6433460712432861,-10.92167854309082,-0.2041876912117004,-0.3917058110237121,0.0601684562861919,0.0284807533025741,jumping
1761304480346976000,-0.7444795370101929,-10.295577049255373,-0.174686849117279,-0.4081986844539642,0.0131332157179713,0.0400868505239486,jumping
1761304480357112300,-0.6674620509147644,-9.774621963500977,-0.1753231287002563,-0.4027010500431061,-0.0271827038377523,0.071850910782814,jumping
1761304480367249000,-0.4808871746063232,-9.370598793029783,-0.1654884219169616,-0.3489464819431305,-0.0668877735733985,0.1146102175116539,jumping
1761304480377385200,-0.1901856362819671,-9.030583381652832,-0.1968083381652832,-0.3092414140701294,-0.0894891247153282,0.1366007179021835,jumping
1761304480387521500,0.0130693912506103,-8.792497634887695,-0.4225344359874725,-0.277477353811264,-0.1010952219367027,0.1396549493074417,jumping
1761304480397657900,0.2391409873962402,-8.756061553955078,-0.4500113725662231,-0.2603736519813537,-0.1053711548447609,0.1164427623152732,jumping
1761304480407794400,0.2797510027885437,-8.86070442199707,-0.5692667365074158,-0.249989241361618,-0.0986518338322639,0.1023932695388794,jumping
1761304480417930800,-0.1468384265899658,-9.288898468017578,-0.5804240703582764,-0.2475458532571792,-0.0943759009242057,0.1506502032279968,jumping
1761304480428067000,-0.6281166672706604,-9.66481113433838,-0.6822091341018677,-0.2493783980607986,-0.0900999680161476,0.2190650999546051,jumping
1761304480438203400,-0.7943586707115173,-9.788517951965332,-0.5528257489204407,-0.2560977041721344,-0.091932512819767,0.2624352574348449,jumping
1761304480448339700,-0.6964787840843201,-9.701592445373535,-0.5313000082969666,-0.2835858464241028,-0.0992626771330833,0.2752630412578583,jumping
1761304480458476300,-0.6399617791175842,-9.591019630432127,-0.4826164841651916,-0.3013004064559936,-0.1206423342227935,0.2783172726631164,jumping
1761304480468612600,-0.803023636341095,-9.613729476928713,-0.4168199896812439,-0.3495573401451111,-0.1487413048744201,0.3015294671058655,jumping
1761304480478749000,-0.7588049173355103,-9.678056716918944,-0.5706400871276855,-0.4283566474914551,-0.1469087600708007,0.3369586169719696,jumping
1761304480488885500,-0.3893399238586426,-9.28752613067627,-0.8728561997413635,-0.5407525300979614,-0.0772721767425537,0.359559953212738,jumping
1761304480499021800,-0.2621634006500244,-8.403409957885742,-0.6344096064567566,-0.6403206586837769,-0.0717745497822761,0.3870480954647064,jumping
1761304480509158100,-0.5416916608810425,-6.941559791564941,-0.4727530479431152,-0.7478297352790833,-0.1261399537324905,0.4163687527179718,jumping
1761304480519294500,-0.5132201910018921,-5.262660503387451,-0.9152644872665404,-0.7820371985435486,-0.1353026628494262,0.4499653577804565,jumping
1761304480529431000,0.155454397201538,-3.2426271438598637,-0.2814755439758301,-0.7368345260620117,-0.08521319180727,0.4438568949699402,jumping
1761304480539567400,1.050602674484253,-0.9592132568359376,0.2600129842758178,-0.7032378911972046,-0.0839914977550506,0.415147066116333,jumping
1761304480549703700,1.0858741998672483,1.3665342330932615,0.1467223167419433,-0.6519267559051514,-0.1487413048744201,0.3546731770038605,jumping
1761304480559840000,1.0691150426864624,3.426432609558105,0.2916768789291382,-0.5975613594055176,-0.1505738496780395,0.2685437202453613,jumping
1761304480569976600,1.6304354667663574,4.832272529602051,0.2234512567520141,-0.4906630516052246,-0.1029277667403221,0.2129566222429275,jumping
1761304480580113000,2.157102584838867,5.491971969604492,0.6286106109619141,-0.3800997138023376,0.0565033704042434,0.231282040476799,jumping
1761304480590249200,2.37226939201355,5.899774551391602,1.2330663204193115,-0.273201435804367,0.2129566222429275,0.2544942498207092,jumping
1761304480600385500,1.8385974168777464,6.765999794006348,1.7253979444503784,-0.2573194205760956,0.3265742063522339,0.2422772943973541,jumping
1761304480610521900,0.4038166999816894,7.975726127624512,1.5533026456832886,-0.3275668323040008,0.3442887961864471,0.2147891670465469,jumping
1761304480620658400,-0.5184450745582581,9.141460418701172,1.4918107986450195,-0.4356867969036102,0.2923667728900909,0.1390441060066223,jumping
1761304480630794800,-0.6507389545440674,9.712647438049316,1.374907374382019,-0.5242596864700317,0.2728196680545807,0.0907871723175048,jumping
1761304480640931000,-0.570452094078064,9.592771530151367,2.1493308544158936,-0.5303681492805481,0.2990860939025879,0.0736834481358528,jumping
1761304480651067400,0.273176908493042,8.80191707611084,2.862743139266968,-0.4637857675552368,0.2691545784473419,0.0370326153934001,jumping
1761304480661204000,0.8479428291320801,7.610790252685547,2.288863182067871,-0.4588989913463592,0.2294494956731796,-0.0124460132792592,jumping
1761304480671340300,1.0727496147155762,6.197223663330078,1.6573419570922852,-0.4436278343200683,0.1671430766582489,-0.0558161698281765,jumping
1761304480681476600,1.007291316986084,4.338693618774414,1.530940294265747,-0.4381301999092102,0.055281676352024,-0.046042613685131,jumping
1761304480691613200,0.3911116123199463,2.4626522064208984,1.0343997478485107,-0.3611634373664856,-0.0607793033123016,0.0046577104367315,jumping
1761304480701749500,0.4829169511795044,1.1289682388305664,0.753281831741333,-0.2536543309688568,-0.1255291104316711,0.0694075226783752,jumping
1761304480711885800,1.049798607826233,0.6100969314575195,0.3044066429138183,-0.1418692767620086,-0.0968192890286445,0.1701973229646682,jumping
1761304480722022100,1.6890150308609009,0.7485437393188477,-0.0697276592254638,-0.057572353631258,0.0265718549489974,0.2715979516506195,jumping
1761304480732158500,2.5145411491394043,1.6770334243774414,-0.6479182243347168,0.0364981219172477,0.171419009566307,0.329628437757492,jumping
1761304480742295000,2.8512885570526123,3.005492210388184,-0.8937727212905884,0.1391204595565796,0.2654894888401031,0.3430670797824859,jumping
1761304480752431400,2.368356704711914,4.440481185913086,-0.8065638542175293,0.2478512823581695,0.255715936422348,0.2923667728900909,jumping
1761304480762567700,1.551653504371643,5.552057266235352,-0.3622732162475586,0.3358132839202881,0.1842468082904815,0.1897444278001785,jumping
1761304480772704000,0.4910612106323242,6.397748947143555,-0.0216395854949951,0.3529170155525207,0.094452254474163,0.0791810750961303,jumping
1761304480782840600,-0.4932430982589721,6.815674781799316,0.0218105316162109,0.3132119178771972,0.0198525357991457,0.0022143214009702,jumping
1761304480792977000,-1.023403882980347,6.874466896057129,0.1431930065155029,0.2747285664081573,-0.0155766047537326,-0.0533727779984474,jumping
1761304480803113200,-0.9435960054397584,6.748525619506836,0.506638765335083,0.2918322682380676,-0.0082464376464486,-0.099797174334526,jumping
1761304480813249500,-0.6121605634689331,6.35707950592041,0.9489254951477052,0.3352024257183075,0.0174091476947069,-0.1346154659986496,jumping
1761304480823385900,-0.0705142021179199,6.167282104492188,1.075495719909668,0.346808522939682,0.0503949001431465,-0.1431673318147659,jumping
1761304480833522400,0.4342410564422607,6.095547676086426,0.90402352809906,0.3309265077114105,0.0804027691483497,-0.1456107199192047,jumping
1761304480843658800,1.1743662357330322,6.072632789611816,0.8367452621459961,0.2979407608509063,0.1347681730985641,-0.1449998617172241,jumping
1761304480853795000,1.9194427728652956,5.962465286254883,0.9733359813690186,0.2600682079792022,0.1634780019521713,-0.1437781751155853,jumping
1761304480863931600,2.514371871948242,5.820479393005371,1.1987872123718262,0.2234173864126205,0.1824142634868621,-0.1193442866206169,jumping
1761304480874068000,2.7776880264282227,5.526898384094238,1.4565284252166748,0.2191414535045623,0.1799708753824234,-0.0918561592698097,jumping
1761304480884204300,2.8353562355041504,5.192065238952637,1.58806049823761,0.2032594233751297,0.1634780019521713,-0.0747524350881576,jumping
1761304480894340600,2.41782808303833,5.045477867126465,1.5464895963668823,0.188599094748497,0.1274380087852478,-0.0295497365295887,jumping
1761304480904477200,1.9046630859375,5.243997573852539,1.5769665241241455,0.1598892658948898,0.0767376869916915,0.0028251686599105,jumping
1761304480914613500,1.8967632055282595,5.223313331604004,1.5829570293426514,0.1238492801785469,0.0357345640659332,0.0187071971595287,jumping
1761304480924749800,1.587978482246399,6.611294746398926,0.7699161767959595,0.0902526825666427,0.0271827038377523,0.0449736304581165,jumping
1761304480934886100,1.4266277551651,7.102396965026856,0.7038111686706543,0.111632339656353,0.0265718549489974,0.0852895453572273,jumping
1761304480945022700,1.2380616664886477,7.510917663574219,0.8071287870407104,0.1330119967460632,0.0222959257662296,0.124383769929409,jumping
1761304480955159000,1.0654056072235107,8.001381874084473,0.5809510946273804,0.157445877790451,0.0198525357991457,0.1384332627058029,jumping
1761304480965295400,0.9085201025009156,8.413155555725098,0.7718459367752075,0.1922641694545745,0.0155766047537326,0.1286597102880478,jumping
1761304480975431700,0.8179346323013306,8.697874069213867,1.1474738121032717,0.2539597451686859,-0.0039705070666968,0.0871220901608467,jumping
1761304480985568000,0.5845160484313965,8.849162101745605,1.4203410148620603,0.3101576864719391,-0.0186308417469263,0.0602448098361492,jumping
1761304480995704600,0.166327953338623,8.78420352935791,1.4009262323379517,0.3529170155525207,-0.0259610079228878,0.0297024473547935,jumping
1761304481005841000,0.1313306093215942,8.75400161743164,1.4315299987792969,0.3987305462360382,-0.0180199947208166,-0.0167219433933496,jumping
1761304481015977200,0.4168254137039184,8.66027545928955,1.346553087234497,0.4769189953804016,-0.0565033704042434,-0.0533727779984474,jumping
1761304481026113500,0.4095638990402221,8.379106521606445,1.413666605949402,0.5801522135734558,-0.0846023485064506,-0.0741415843367576,jumping
1761304481036250000,0.5911000967025757,7.949838638305664,1.562446355819702,0.6552863717079163,-0.0894891247153282,-0.1004080176353454,jumping
1761304481046386400,0.6726185083389282,7.363620758056641,1.4172755479812622,0.7230904698371887,-0.0907108187675476,-0.1309503763914108,jumping
1761304481056522800,0.9254364967346193,6.537267684936523,1.3072974681854248,0.7982246279716492,-0.1255291104316711,-0.1792073100805282,jumping
1761304481066659300,1.1595231294631958,5.319177627563477,1.158759593963623,0.8770239353179932,-0.1554606258869171,-0.2164690047502517,jumping
1761304481076795600,1.3275229930877686,3.487215995788574,0.8783086538314819,0.931389331817627,-0.163401648402214,-0.2299076318740844,jumping
1761304481086932000,1.4064456224441528,1.3399810791015625,0.5919089317321777,0.9350544214248656,-0.138967752456665,-0.2457896620035171,jumping
1761304481097068300,1.1797245740890503,-1.076211929321289,0.1795109510421753,0.905122935771942,-0.1438545286655426,-0.2909923493862152,jumping
1761304481107204600,0.848192572593689,-3.638853073120117,-0.2775784134864807,0.8477032780647278,-0.1731752008199691,-0.3557421863079071,jumping
1761304481127477500,-0.7867655754089355,-9.291316032409668,-0.9248207807540894,0.5929799675941467,-0.1756185889244079,-0.371013343334198,jumping
1761304481137613800,-1.391164779663086,-11.466142654418944,-0.9356706142425536,0.448820024728775,-0.1560714691877365,-0.3502445518970489,jumping
1761304481147750100,-1.7650768756866455,-13.16926097869873,-1.1518211364746094,0.3382566571235657,-0.115144707262516,-0.2958791553974151,jumping
1761304481157886700,-1.8565478324890137,-14.331094741821287,-1.287432312965393,0.2649549841880798,-0.0473406612873077,-0.2421245872974395,jumping
1761304481168023000,-1.876908779144287,-14.910627365112305,-1.1815040111541748,0.2038702666759491,0.0161874517798423,-0.1847049444913864,jumping
1761304481178159400,-2.1329920291900635,-14.738153457641602,-1.1379882097244265,0.134233683347702,0.0174091476947069,-0.1431673318147659,jumping
1761304481188295700,-2.1166582107543945,-13.759181022644045,-1.1082310676574707,0.0432174429297447,-0.0216850768774747,-0.1419456303119659,jumping
1761304481198432300,-2.0668046474456787,-12.52512550354004,-0.9556428790092468,-0.0691784545779228,-0.0815481096506118,-0.1480541080236435,jumping
1761304481208568600,-2.164597511291504,-11.397058486938477,-0.8154535889625549,-0.1919587552547454,-0.1194206401705741,-0.1559951156377792,jumping
1761304481218705000,-2.0053048133850098,-10.489477157592772,-0.4852771759033203,-0.2725905776023865,-0.1566823273897171,-0.1737096905708313,jumping
1761304481228841200,-1.9784631729125977,-10.455984115600586,-0.5133370161056519,-0.3147390484809875,-0.1725643575191497,-0.2170798480510711,jumping
1761304481238977800,-1.084147572517395,-9.064826965332031,0.4274511337280273,-0.3385621011257171,-0.1487413048744201,-0.2537306845188141,jumping
1761304481249114000,-0.8617544174194336,-8.89964485168457,0.5917650461196899,-0.3843756318092346,-0.0870457366108894,-0.2659476399421692,jumping
1761304481259250400,-0.9532312750816344,-9.03279972076416,0.4989114999771118,-0.3917058110237121,-0.0131332157179713,-0.2317401766777038,jumping
1761304481269386800,-1.09368634223938,-9.4159517288208,1.006566047668457,-0.3538332879543304,0.016798298805952,-0.1902025640010833,jumping
1761304481279523300,-1.1376272439956665,-9.801901817321776,0.6593313813209534,-0.3703261613845825,-0.0070247435942292,-0.1260636001825332,jumping
1761304481289659600,-1.3959784507751465,-10.193323135375977,-0.4845080375671386,-0.3361186981201172,-0.0943759009242057,-0.0393232926726341,jumping
1761304481299796000,-1.5404207706451416,-10.704835891723633,-0.6547929048538208,-0.2829749882221222,-0.1548497825860977,0.0675749778747558,jumping
1761304481309932300,-1.223820686340332,-11.068548202514648,-0.5982457995414734,-0.2652604281902313,-0.1701209545135498,0.1646996885538101,jumping
1761304481320068900,-1.062119960784912,-11.156173706054688,-0.9973710179328918,-0.2640387415885925,-0.1829487532377243,0.2251735776662826,jumping
1761304481330205200,-0.715911865234375,-10.846779823303224,-1.2326534986495972,-0.2854183912277221,-0.1652341783046722,0.2642678022384643,jumping
1761304481340341500,-0.5763192176818848,-10.595064163208008,-1.197463035583496,-0.30740886926651,-0.1236965730786323,0.2972535490989685,jumping
1761304481350477800,-0.445767343044281,-10.245641708374023,-1.1805016994476318,-0.3184041380882263,-0.0693311616778373,0.3442887961864471,jumping
1761304481360614100,-0.6692708730697632,-9.949027061462402,-1.1241037845611572,-0.303132951259613,-0.0400104969739913,0.4285857081413269,jumping
1761304481370750700,-0.877031683921814,-9.609264373779297,-1.045726299285889,-0.3202366828918457,-0.0180199947208166,0.5006656646728516,jumping
1761304481380887000,-0.8592395782470703,-9.178773880004885,-1.0656081438064575,-0.3733803927898407,-0.0125223686918616,0.5226562023162842,jumping
1761304481391023400,-0.5543929934501648,-8.634227752685547,-1.2305643558502195,-0.4723376333713531,-0.016798298805952,0.4658474028110504,jumping
1761304481401159700,-0.3198870420455932,-7.935604572296143,-1.0500775575637815,-0.5822901725769043,0.0357345640659332,0.3742203116416931,jumping
1761304481411296300,-0.5841771960258484,-7.19233512878418,-0.321442186832428,-0.7386670708656311,0.0577250644564628,0.2935884594917297,jumping
1761304481421432600,-0.8692106008529663,-5.956114292144775,-0.3824477195739746,-0.8993198871612549,0.0131332157179713,0.1604237556457519,jumping
1761304481431569000,-0.6380289196968079,-4.23228120803833,-0.7970499992370605,-0.9103151559829712,-0.0045813545584678,0.0571905747056007,jumping
1761304481441705500,-0.260688304901123,-2.661879062652588,0.3629899024963379,-0.8486195802688599,0.055281676352024,0.0535254925489425,jumping
1761304481451841800,-0.2629931569099426,-1.3769145011901855,1.4036917686462402,-0.7948650121688843,0.1909661293029785,0.1445417255163192,jumping
1761304481461978000,-0.2671383023262024,0.2792749404907226,2.2143383026123047,-0.7069029808044434,0.2911450862884521,0.2367796748876571,jumping
1761304481472114400,-0.0127348899841308,2.436629295349121,1.57789945602417,-0.6604785919189453,0.2984752357006073,0.2587701678276062,jumping
1761304481482250800,0.2631125450134277,4.885434150695801,0.9459881782531738,-0.6201626658439636,0.1927986592054367,0.232503741979599,jumping
1761304481492387300,0.0290615558624267,6.760076522827148,0.7566559314727783,-0.5413633584976196,0.0767376869916915,0.2172325551509857,jumping
1761304481502523600,0.1678932905197143,7.863215446472168,0.8783055543899536,-0.4149180054664612,0.0363454110920429,0.2111240774393081,jumping
1761304481512660000,1.367740273475647,8.747748374938965,1.2808221578598022,-0.2591519355773926,0.0626118406653404,0.1995179802179336,jumping
1761304481522796300,2.391359329223633,9.866076469421388,1.8176442384719849,-0.1571404635906219,0.0889546349644661,0.1622563004493713,jumping
1761304481532932900,2.251316547393799,10.987631797790527,1.3447803258895874,-0.1663031727075576,0.0797919258475303,0.0883437842130661,jumping
1761304481543069200,1.0967960357666016,11.249611854553224,1.0055042505264282,-0.2176143378019333,0.0119115216657519,0.0516929477453231,jumping
1761304481553205500,-0.3436586856842041,10.351366996765137,0.8591928482055664,-0.2090624719858169,-0.0076355906203389,0.1036149635910987,jumping
1761304481563341800,-0.5935304164886475,8.95372200012207,1.677499294281006,-0.1284306347370147,0.0290152449160814,0.1628671437501907,jumping
1761304481573478400,-0.0781630277633667,7.795651435852051,1.885167360305786,-0.0606265887618064,0.1048366576433181,0.1982962936162948,jumping
1761304481583614700,0.3173819780349731,6.9792985916137695,1.688828468322754,-0.0239757541567087,0.1744732409715652,0.202572226524353,jumping
1761304481593751000,0.7721133232116699,6.56088924407959,1.4919843673706057,-0.0142021989449858,0.1451525837182998,0.1634780019521713,jumping
1761304481603887400,1.0613186359405518,6.272548675537109,1.1963324546813965,-0.0416903272271156,0.0700183659791946,0.1158319115638732,jumping
1761304481614024000,1.0949997901916504,5.638704299926758,0.887747049331665,-0.0447445623576641,0.0125223686918616,0.095063105225563,jumping
1761304481624160300,1.3408186435699463,5.161674499511719,0.7530670166015625,-0.0398577824234962,-0.0339020229876041,0.0871220901608467,jumping
1761304481634296600,1.9438594579696653,4.848161697387695,0.5148634910583496,-0.0313059203326702,-0.0558925233781337,0.0840678513050079,jumping
1761304481644433000,2.466726303100586,4.4343109130859375,0.3276684284210205,-0.0013744062744081,-0.0400104969739913,0.0590231157839298,jumping
1761304481654569500,2.5899429321289062,3.9987401962280273,0.7118432521820068,0.0303896516561508,-0.016798298805952,0.0083227939903736,jumping
1761304481664705800,2.1391637325286865,3.2748336791992188,1.071368932723999,0.0377198196947574,0.0094681326299905,-0.028938889503479,jumping
1761304481674842000,1.341678261756897,2.574623107910156,1.0324835777282717,0.0255028735846281,0.0064138961024582,-0.0356582105159759,jumping
1761304481684978400,0.8079568147659302,2.12173080444336,0.6419622898101807,0.0371089726686477,-0.0253501608967781,-0.0564270168542861,jumping
1761304481695115000,0.5990285873413086,1.9963769912719729,0.2370758056640625,0.042606595903635,-0.0736070945858955,-0.1028514057397842,jumping
1761304481705251300,0.0579687356948852,1.9684133529663088,-0.0676712989807128,0.0481042228639125,-0.1139230132102966,-0.152940884232521,jumping
1761304481715387600,-0.5875737071037292,2.025790214538574,-0.2380263805389404,0.0694838762283325,-0.1285833418369293,-0.1712663024663925,jumping
1761304481725524000,-0.9876125454902648,2.2853384017944336,-0.23862886428833,0.1134648770093917,-0.1542389392852783,-0.1535517275333404,jumping
1761304481735660300,-1.056816339492798,2.810854911804199,-0.1052139997482299,0.1678302884101867,-0.1493521481752395,-0.129728689789772,jumping
1761304481745796900,-0.6961667537689209,3.5226001739501958,0.0612978935241699,0.2203631550073623,-0.1359135210514068,-0.1254527568817138,jumping
1761304481755933200,-0.1014015674591064,4.224316596984863,0.1072355508804321,0.2673983871936798,-0.1029277667403221,-0.129728689789772,jumping
1761304481766069500,0.4255571365356445,4.608396530151367,0.1678690910339355,0.3052709102630615,-0.0485623553395271,-0.1248419061303138,jumping
1761304481776205800,0.8489792346954346,4.852893829345703,0.3364154100418091,0.3205420970916748,0.0137440636754035,-0.1175117418169975,jumping
1761304481786342400,1.0676307678222656,4.927252769470215,0.4966697692871094,0.3211529552936554,0.0706292167305946,-0.1236202120780944,jumping
1761304481796478700,1.2617942094802856,4.974874496459961,0.7124837636947632,0.3150444626808166,0.1280488520860672,-0.1614927500486374,jumping
1761304481806615000,1.574661374092102,5.232071876525879,1.0234134197235107,0.296108216047287,0.1616454571485519,-0.2274642437696457,jumping
1761304481816751600,1.7089582681655884,5.557356834411621,1.1157938241958618,0.2686200737953186,0.1824142634868621,-0.311150312423706,jumping
1761304481826888000,1.7214843034744265,6.048669815063477,1.080785632133484,0.2325800955295562,0.153704434633255,-0.3936147093772888,jumping
1761304481837024300,1.5457850694656372,6.615890502929688,0.8236449956893921,0.1739387512207031,0.1048366576433181,-0.4308763742446899,jumping
1761304481847160600,1.0886802673339844,7.084768295288086,0.4770370721817016,0.1244601309299469,0.062000997364521,-0.4363740086555481,jumping
1761304481857297000,0.9465534687042236,7.476835250854492,0.6393115520477295,0.1122431829571724,0.0198525357991457,-0.4039991199970245,jumping
1761304481867433500,0.7302074432373047,7.7949676513671875,1.218261957168579,0.1201841980218887,-0.0503949001431465,-0.3123720288276672,jumping
1761304481877569800,0.7481949329376221,7.768756866455078,1.2327277660369873,0.1727170646190643,-0.0626118406653404,-0.2140256017446518,jumping
1761304481887706000,1.1900372505187988,8.702506065368652,1.3821101188659668,0.2325800955295562,-0.0687203183770179,-0.1303395330905914,jumping
1761304481897842400,1.3118252754211426,9.224533081054688,1.444219708442688,0.3229855000972748,-0.0351237170398235,-0.0863585323095321,jumping
1761304481907979000,1.1191413402557373,9.512036323547363,2.1109554767608643,0.4512633979320526,-0.0155766047537326,-0.0448209159076213,jumping
1761304481918115300,0.7532265186309814,9.70881175994873,2.43061637878418,0.5801522135734558,-0.0021379655227065,-0.0240521114319562,jumping
1761304481928251600,0.6354788541793823,10.156560897827148,2.362675189971924,0.695602297782898,-0.023517619818449,-0.0399341396987438,jumping
1761304481938388000,0.589484453201294,10.542583465576172,2.1046600341796875,0.7689039707183838,-0.0503949001431465,-0.0655897259712219,jumping
1761304481948524500,0.5822097063064575,10.721077919006348,2.037478446960449,0.8709154725074768,-0.0925433561205864,-0.098575472831726,jumping
1761304481958660900,0.7920970916748047,10.473505020141602,2.220850944519043,0.9582666158676147,-0.091932512819767,-0.1193442866206169,jumping
1761304481968797200,1.142446517944336,9.59117317199707,2.120741844177246,1.03828763961792,-0.0717745497822761,-0.1401130855083465,jumping
1761304481978933500,1.7556577920913696,7.949294090270996,1.6878632307052612,1.1220500469207764,-0.0247393138706684,-0.1676012128591537,jumping
1761304481989070000,2.332415103912353,5.5360612869262695,1.1352033615112305,1.1776371002197266,0.0155766047537326,-0.1950893402099609,jumping
1761304481999206400,2.6399378776550293,2.333211898803711,0.5264010429382324,1.1544249057769775,0.0724617540836334,-0.1865374743938446,jumping
1761304482009342700,2.16640305519104,-1.3294858932495115,-0.0474780797958374,1.0841774940490725,0.094452254474163,-0.1443890184164047,jumping
1761304482019479000,1.7612810134887695,-4.899796485900879,-0.1907545328140258,0.9833113551139832,0.0907871723175048,-0.1486649513244629,jumping
1761304482029615600,1.1804349422454834,-8.156493186950684,-0.3344420492649078,0.8110524415969849,0.0662769302725792,-0.2201340794563293,jumping
1761304482039752000,-0.0326122045516967,-11.21592140197754,-0.7267707586288452,0.6149705052375793,0.019241688773036,-0.3545204699039459,jumping
1761304482049888300,-1.0524592399597168,-13.811610221862791,-0.8556467294692993,0.4701996743679046,-0.023517619818449,-0.4882960319519043,jumping
1761304482060024600,-2.188814401626587,-15.88952922821045,-0.4425636231899261,0.3712424337863922,-0.0522274412214756,-0.5640410780906677,jumping
1761304482070161200,-3.295933246612549,-17.135257720947266,0.0139367878437042,0.2930539846420288,-0.0577250644564628,-0.5670953392982483,jumping
1761304482080297500,-3.618178367614746,-16.90329360961914,0.4691450893878937,0.2441861927509308,-0.0821589529514312,-0.4876851737499237,jumping
1761304482090433800,-3.770738124847412,-15.35483455657959,0.4739301204681396,0.1458397805690765,-0.1102579310536384,-0.3893387615680694,jumping
1761304482100570000,-3.187127590179444,-13.095056533813477,-0.2348619997501373,0.0071774553507566,-0.1408002972602844,-0.2995442152023315,jumping
1761304482110706400,-2.3090081214904785,-11.167165756225586,-0.4757318794727325,-0.0856713280081749,-0.185392141342163,-0.2054737508296966,jumping
1761304482120843000,-1.2032550573349,-9.508223533630373,-0.2842104434967041,-0.1852394342422485,-0.1798945218324661,-0.1162900477647781,jumping
1761304482130979300,-1.1921744346618652,-9.483922958374023,-0.3104406595230102,-0.2786990702152252,-0.1462979167699813,-0.0863585323095321,jumping
1761304482141115600,1.362973928451538,-7.7042951583862305,0.120406687259674,-0.3636068403720855,-0.1010952219367027,-0.1407239437103271,jumping
1761304482151252000,2.265798807144165,-7.488589286804199,0.0783808529376983,-0.3752129375934601,-0.0583359114825725,-0.1822615563869476,jumping
1761304482161388500,1.743987202644348,-8.443517684936523,0.2979617118835449,-0.3159607350826263,-0.0638335421681404,-0.1443890184164047,jumping
1761304482171524900,0.5216001272201538,-10.078571319580078,0.1569429636001587,-0.2634278833866119,-0.0754396393895149,-0.0271063465625047,jumping
1761304482181661200,-0.5767213106155396,-11.46810531616211,-0.2624192237854004,-0.1638597846031189,-0.1401894390583038,0.0981173440814018,jumping
1761304482191797800,-1.055711269378662,-12.020793914794922,-0.4778184294700622,-0.0490204915404319,-0.2263189107179641,0.1860793530941009,jumping
1761304482201934000,-1.3388421535491943,-12.10386848449707,-0.7765733003616333,-0.0062611843459308,-0.2617480456829071,0.2453315258026123,jumping
1761304482212070400,-1.4171006679534912,-11.775994300842283,-0.8185840845108032,0.0224486365914344,-0.2599155008792877,0.2587701678276062,jumping
1761304482222206700,-1.306544303894043,-11.224554061889648,-0.764773428440094,0.0267245676368474,-0.2171562016010284,0.2380013614892959,jumping
1761304482232343000,-1.2501251697540283,-10.571833610534668,-0.909007728099823,0.0322221927344799,-0.1768402755260467,0.2300603538751602,jumping
1761304482242479600,-1.335747241973877,-9.722402572631836,-0.9119952917099,0.0340547338128089,-0.1450762301683426,0.2428881376981735,jumping
1761304482252616000,-1.3041925430297852,-8.949260711669922,-0.98146790266037,0.0413849018514156,-0.0949867516756057,0.2221193313598632,jumping
1761304482262752300,-1.1968636512756348,-8.288046836853027,-0.9362120628356934,0.0206160955131053,-0.0302369389683008,0.1824142634868621,jumping
1761304482272888600,-1.1466618776321411,-7.891292572021484,-1.0847188234329224,-0.0264191441237926,0.0332911759614944,0.1317139416933059,jumping
1761304482283025200,-1.0565205812454224,-7.86802864074707,-0.989025354385376,-0.0923906490206718,0.1139993667602539,0.0920088663697242,jumping
1761304482293161500,-0.874889612197876,-8.035821914672852,-1.2654786109924316,-0.1815743446350097,0.1671430766582489,0.0352000743150711,jumping
1761304482303297800,-0.4345046281814575,-8.181530952453613,-1.6474287509918213,-0.2909159958362579,0.2031830698251724,-0.0258846525102853,jumping
1761304482313434000,-0.2978265285491943,-8.786866188049316,-1.9329890012741089,-0.439351886510849,0.2514399886131286,-0.0295497365295887,jumping
1761304482323570700,-0.2601540684700012,-9.382649421691896,-1.8120092153549197,-0.5633538961410522,0.3113030195236206,-0.0417666807770729,jumping
1761304482333707000,-0.643852174282074,-9.015423774719238,-0.8632475733757019,-0.751494824886322,0.2648786306381225,-0.0582595579326152,jumping
1761304482343843300,-1.866747498512268,-8.22805404663086,-1.0681383609771729,-1.0312628746032717,0.306416243314743,-0.0069483877159655,jumping
1761304482353979600,-1.539173603057861,-7.5020647048950195,-1.2165955305099487,-1.149767279624939,0.3222982883453369,0.0749051421880722,jumping
1761304482364116200,-0.6625652313232422,-6.340891361236572,-0.1260854601860046,-1.186418056488037,0.3394020199775696,0.1763057857751846,jumping
1761304482374252500,-0.1887510418891906,-4.327826976776123,1.0042599439620972,-1.242616057395935,0.3748311400413513,0.2044047713279724,jumping
1761304482384388900,0.2154390811920166,-1.6995186805725098,1.909332275390625,-1.2713258266448977,0.4218663871288299,0.1818034201860427,jumping
1761304482394525200,0.6516929268836975,0.410801887512207,2.1512680053710938,-1.2853753566741943,0.5116609334945679,0.2050156146287918,jumping
1761304482404661800,1.0552799701690674,2.3379011154174805,2.154346466064453,-1.2059651613235474,0.4860053360462188,0.2911450862884521,jumping
1761304482414798000,1.210082769393921,4.553577423095703,2.369859218597412,-1.0624160766601562,0.3766636848449707,0.3497864007949829,jumping
1761304482424934400,1.21848464012146,7.2118988037109375,2.200721740722656,-0.9170344471931458,0.2233410328626632,0.4072060585021972,jumping
1761304482435070700,1.0936648845672607,9.284114837646484,1.4703452587127686,-0.778982937335968,0.0889546349644661,0.4035409688949585,jumping
1761304482445207300,2.255255937576294,11.69328784942627,0.7869225740432739,-0.6720846891403198,0.1451525837182998,0.3497864007949829,jumping
1761304482455343600,3.6530048847198486,14.02546215057373,0.7977559566497803,-0.5810684561729431,0.2667111754417419,0.2954210042953491,jumping
1761304482465480000,3.2731728553771973,14.881170272827148,1.4462697505950928,-0.4760027229785919,0.259991854429245,0.2661003470420837,jumping
1761304482475616300,1.6952728033065796,14.531417846679688,1.0140228271484375,-0.3709369897842407,0.2367796748876571,0.2380013614892959,jumping
1761304482485752600,0.9131796360015868,13.143409729003906,0.96764874458313,-0.2420482337474823,0.2037939131259918,0.2160108685493469,jumping
1761304482495889200,0.4385513067245483,10.755496978759766,1.398756742477417,-0.119267925620079,0.1787491738796234,0.1866901963949203,jumping
1761304482506025500,0.1110082864761352,8.512431144714355,1.7316341400146484,-0.066735066473484,0.1176644563674926,0.094452254474163,jumping
1761304482516161800,0.0277317762374877,6.492300987243652,1.6326799392700195,-0.1351499557495117,0.0650552362203598,-0.0423775278031826,jumping
1761304482526298000,0.26069176197052,4.807910919189453,0.8685300350189209,-0.2530434727668762,0.0607793033123016,-0.1779856234788894,jumping
1761304482536434700,0.4452757835388183,3.316991806030273,0.1079590320587158,-0.3116848170757293,0.055281676352024,-0.2543415129184723,jumping
1761304482546571000,0.5322156548500061,2.371313095092773,-0.1869043111801147,-0.282364159822464,0.0424538850784301,-0.264725923538208,jumping
1761304482556707300,0.424393892288208,2.1769466400146484,-0.0549993515014648,-0.2005106061697006,0.0045813545584678,-0.1859266310930252,jumping
1761304482566843600,0.1766282320022583,2.672175407409668,0.160196304321289,-0.1027750521898269,-0.0314586348831653,-0.075363278388977,jumping
1761304482576980200,0.7978127598762512,3.706923484802246,0.0617058277130126,-0.0093154208734631,-0.0736070945858955,0.0003817795368377,jumping
1761304482587116500,1.606069803237915,4.883161544799805,-0.0873191356658935,0.080479122698307,-0.115755558013916,0.041308544576168,jumping
1761304482597252900,1.8613979816436768,5.56324577331543,-0.2321176528930664,0.1458397805690765,-0.1169772520661354,0.0584122687578201,jumping
1761304482607389200,1.6708574295043943,5.785120010375977,-0.1497519016265869,0.1708845198154449,-0.1065928488969802,0.071850910782814,jumping
1761304482617525800,1.3450071811676023,5.640903472900391,-0.0143098831176757,0.1806580722332,-0.0833806544542312,0.0736834481358528,jumping
1761304482627662000,1.0043224096298218,5.297883987426758,0.1809403896331787,0.2093679010868072,-0.0882674306631088,0.0364217683672905,jumping
1761304482637798400,0.6749522686004639,4.729898452758789,0.4509143829345703,0.2447970360517501,-0.1017060652375221,-0.0258846525102853,jumping
1761304482647934700,0.2119554281234741,4.155390739440918,0.7125756740570068,0.2625116109848022,-0.1188097894191742,-0.0716981962323188,jumping
1761304482658071300,-0.0251364707946777,3.787594795227051,0.6196928024291992,0.2564031481742859,-0.1285833418369293,-0.1010188683867454,jumping
1761304482668207600,0.0675177574157714,3.912853240966797,0.3894803524017334,0.2399102598428726,-0.1401894390583038,-0.1236202120780944,jumping
1761304482678344000,0.348990797996521,4.324299812316895,0.2714489698410034,0.2313583940267563,-0.1566823273897171,-0.1553842723369598,jumping
1761304482688480300,0.6461331844329834,4.765771865844727,0.4205366373062134,0.2246390730142593,-0.1548497825860977,-0.1755422353744506,jumping
1761304482698616800,0.7546348571777344,5.046330451965332,0.4417693614959717,0.217308908700943,-0.1316375881433487,-0.1779856234788894,jumping
1761304482708753200,0.9291350841522216,5.354489326477051,0.3507769107818603,0.2429644912481308,-0.1261399537324905,-0.1700446009635925,jumping
1761304482718889500,0.970355212688446,5.730349540710449,0.2460552453994751,0.296108216047287,-0.1212531775236129,-0.152940884232521,jumping
1761304482729025800,0.8428480625152588,6.035600662231445,0.2477498054504394,0.3327590525150299,-0.1047603040933609,-0.1340046226978302,jumping
1761304482739162000,0.5984935760498047,6.129612922668457,0.4370182752609253,0.3694098889827728,-0.1102579310536384,-0.1083490327000618,jumping
1761304482749298700,0.3285722136497497,6.011088371276856,0.4140253067016601,0.3779617547988891,-0.0925433561205864,-0.0808609053492546,jumping
1761304482759435000,0.2780650854110718,5.961860656738281,0.2923705577850342,0.3938437700271606,-0.0864348858594894,-0.0936886966228485,jumping
1761304482769571300,0.4243274331092834,5.955266952514648,0.3964171409606933,0.4274403750896454,-0.0772721767425537,-0.099797174334526,jumping
1761304482779707600,0.4305995106697082,5.9317731857299805,0.4410789012908935,0.4567610323429107,-0.0754396393895149,-0.0875802263617515,jumping
1761304482789844200,-0.1215184926986694,6.03046989440918,0.863389253616333,0.4604261219501495,-0.0723854005336761,-0.0668114200234413,jumping
1761304482799980500,-0.1543248891830444,6.601971626281738,0.7906241416931152,0.4640912115573883,-0.0558925233781337,-0.060702946037054,jumping
1761304482810116900,0.2909051775932312,7.375142097473144,0.6053824424743652,0.4836383163928985,-0.046729814261198,-0.0381015986204147,jumping
1761304482820253200,0.4971563816070556,8.069842338562012,0.4468034505844116,0.529451847076416,-0.0491732060909271,0.0003817795368377,jumping
1761304482830389800,0.5915148258209229,8.666670799255371,0.5672374963760376,0.6143596172332764,-0.0644443854689598,0.0376434624195098,jumping
1761304482840526000,0.6604089140892029,9.025087356567385,0.7402204275131226,0.6888830065727234,-0.0448972731828689,0.0541363395750522,jumping
1761304482850662400,0.7656474113464355,9.174053192138672,0.9223095178604126,0.7841751575469971,-0.016798298805952,0.0510821007192134,jumping
1761304482860798700,0.839419960975647,9.023444175720217,1.0513079166412354,0.8782456517219543,0.0143549107015132,0.032756682485342,jumping
1761304482870935300,0.6938831210136414,8.641255378723145,1.0538722276687622,0.9558232426643372,0.0706292167305946,0.009544488042593,jumping
1761304482881071600,0.5466911792755127,8.025827407836914,1.2487573623657229,1.0395092964172363,0.1097234413027763,-0.0142785543575882,jumping
1761304482901344300,0.5865920186042786,6.771449089050293,0.9975636005401612,1.1690852642059326,0.142709195613861,-0.0845259875059127,jumping
1761304482911480800,0.9651012420654296,5.961352348327637,0.6286864876747131,1.2423869371414185,0.1659213900566101,-0.1077381819486618,jumping
1761304482921617200,1.090827226638794,4.915257453918457,0.5009351968765259,1.370054006576538,0.1750840991735458,-0.1217876747250557,jumping
1761304482931753500,0.9015486836433412,3.634297370910645,0.3217799067497253,1.5136032104492188,0.1646996885538101,-0.129728689789772,jumping
1761304482941889800,0.556753933429718,2.1318721771240234,0.0396191924810409,1.6192797422409058,0.1598129123449325,-0.1248419061303138,jumping
1761304482952026400,-0.0979340672492981,0.340001106262207,-0.2765600383281708,1.630275011062622,0.1842468082904815,-0.1010188683867454,jumping
1761304482962162700,-0.4416654109954834,-1.5903244018554688,-0.6538653373718262,1.563692569732666,0.2062373012304306,-0.0930778533220291,jumping
1761304482972299000,-0.79508376121521,-3.404026985168457,-0.9921870231628418,1.4018181562423706,0.225784420967102,-0.1101815775036811,jumping
1761304482982435300,-0.9587477445602416,-5.322333812713623,-1.3456337451934814,1.1788588762283323,0.2361688166856765,-0.1621035933494568,jumping
1761304482992571600,-1.0716527700424194,-7.281769752502441,-1.2125871181488037,0.9332218766212464,0.2483857721090316,-0.260450005531311,jumping
1761304483002708200,-1.0585558414459229,-9.209019660949709,-0.9633036255836488,0.6723901033401489,0.2331145852804184,-0.3704025149345398,jumping
1761304483012844500,-1.2317619323730469,-11.273970603942873,-1.007833480834961,0.39567631483078,0.1995179802179336,-0.440649926662445,jumping
1761304483022980900,-1.409690260887146,-13.246707916259766,-1.1744365692138672,0.1525591015815735,0.1194969937205314,-0.4571428298950195,jumping
1761304483033117200,-1.949211835861206,-14.861993789672852,-0.8970065712928772,-0.0471879504621028,0.0186308417469263,-0.4382065534591675,jumping
1761304483043253800,-2.107060670852661,-15.659543991088867,-0.3492141962051391,-0.2053973972797393,-0.0674986243247985,-0.4168269038200378,jumping
1761304483053390000,-1.9265615940093996,-15.436058044433594,0.3429526090621948,-0.3727695345878601,-0.1078145429491996,-0.4046099483966827,jumping
1761304483063526400,-1.4932045936584473,-14.356327056884766,0.5569050312042236,-0.5541911721229553,-0.1524063944816589,-0.3820086121559143,jumping
1761304483073662700,-1.1466095447540283,-12.971271514892578,0.461152583360672,-0.6855233311653137,-0.1566823273897171,-0.3630723357200622,jumping
1761304483083799300,-0.5599024295806885,-11.973468780517578,1.2704099416732788,-0.7172874212265015,-0.2422009408473968,-0.3117611706256866,jumping
1761304483093935600,-0.1085038781166076,-11.180198669433594,1.0407943725585938,-0.7276718020439148,-0.3833066523075104,-0.212803915143013,jumping
1761304483104072000,-0.0960219800472259,-11.154505729675291,0.9698228240013124,-0.7032378911972046,-0.4688252806663513,-0.1101815775036811,jumping
1761304483114208300,1.7860713005065918,-9.79542064666748,0.9838871359825134,-0.669030487537384,-0.5036435723304749,-0.0142785543575882,jumping
1761304483124344800,2.361010789871216,-9.484898567199709,0.6303775906562805,-0.6433748602867126,-0.4694361090660095,0.0877329409122467,jumping
1761304483134481200,2.602938175201416,-9.60904026031494,0.7102510929107666,-0.6659762263298035,-0.4285093545913696,0.1775274872779846,jumping
1761304483144617500,2.269927740097046,-9.947075843811035,0.3438666760921478,-0.6861341595649719,-0.3857500553131103,0.2355579733848571,jumping
1761304483154753800,1.7494804859161377,-10.252618789672852,0.2280597239732742,-0.6757497787475586,-0.3802524209022522,0.2538833916187286,jumping
1761304483164890400,0.8398513197898865,-10.499732971191406,0.4178244173526764,-0.6109999418258667,-0.4077405333518982,0.2398339062929153,jumping
1761304483175026700,0.0895622968673706,-10.676807403564451,0.6695850491523743,-0.538919985294342,-0.4547757804393768,0.2184542566537857,jumping
1761304483185163000,-0.7812939882278442,-10.767266273498535,0.6473712921142578,-0.4821111857891083,-0.509141206741333,0.2221193313598632,jumping
1761304483195299300,-1.3510499000549316,-10.525489807128906,0.4568565189838409,-0.4259132444858551,-0.5610632300376892,0.2147891670465469,jumping
1761304483205435600,-1.5840554237365725,-9.959491729736328,0.1171739101409912,-0.3959817290306091,-0.5738909840583801,0.202572226524353,jumping
1761304483215572200,-1.6044505834579468,-9.363824844360352,-0.3283590674400329,-0.3880407214164734,-0.536629319190979,0.1830251067876815,jumping
1761304483225708500,-1.6227397918701172,-8.728815078735352,-0.7081521153450012,-0.4332434237003326,-0.4559974670410156,0.1634780019521713,jumping
1761304483235844900,-1.4307501316070557,-8.085545539855957,-0.8639148473739624,-0.5181511640548706,-0.3570402264595032,0.1158319115638732,jumping
1761304483245981200,-1.1398603916168213,-7.710806846618652,-0.6714509725570679,-0.6445965766906738,-0.2202104330062866,0.0559688806533813,jumping
1761304483256117800,-1.1014479398727417,-7.9331207275390625,-0.3247328400611877,-0.7692093849182129,-0.1041494607925415,0.0217614341527223,jumping
1761304483266254000,-1.3280240297317505,-8.33014965057373,-0.0013985633850097,-0.8779402375221252,-0.0345128700137138,0.0486387126147747,jumping
1761304483276390400,-1.4730441570281982,-8.559389114379883,0.0825456380844116,-1.002553105354309,-0.0143549107015132,0.1023932695388794,jumping
1761304483286526700,-1.309785008430481,-8.506881713867188,-0.0167362093925476,-1.0178242921829224,0.0485623553395271,0.2105132341384887,jumping
1761304483296663000,-1.149186611175537,-7.949733734130859,1.255146026611328,-0.9249754548072816,-0.0491732060909271,0.3271850645542145,jumping
1761304483306799600,-0.798205554485321,-6.479653835296631,1.2555608749389648,-0.987281858921051,-0.1365243643522262,0.3974325060844421,jumping
1761304483316936000,0.1328047513961792,-4.401769161224365,-0.6263259649276733,-1.0960127115249634,-0.1114796251058578,0.4194230139255523,jumping
1761304483327072300,1.3298217058181765,-2.410902976989746,-0.6038476824760437,-1.1228899955749512,0.0907871723175048,0.4365267157554626,jumping
1761304483337208800,1.9104161262512207,0.051910400390625,0.9527125358581544,-0.9805625677108764,0.1659213900566101,0.4200338423252105,jumping
1761304483347345200,1.7466425895690918,2.6629562377929688,2.3999133110046387,-0.8522846102714539,0.224562719464302,0.4078168869018554,jumping
1761304483357481500,1.3114280700683594,5.006861686706543,2.50909686088562,-0.7423321604728699,0.2361688166856765,0.4591280817985534,jumping
1761304483367617800,0.9172874689102172,6.924535751342773,1.629252314567566,-0.645207405090332,0.1775274872779846,0.5348731279373169,jumping
1761304483377754400,0.6855999827384949,8.712040901184082,1.0316685438156128,-0.5187620520591736,0.0797919258475303,0.5544202327728271,jumping
1761304483387890700,0.3755664825439453,10.001834869384766,0.808772087097168,-0.4149180054664612,0.0186308417469263,0.544646680355072,jumping
1761304483398027000,-0.1689462661743164,10.749531745910645,0.3975558280944824,-0.3410054743289947,0.0070247435942292,0.4780643284320831,jumping
1761304483408163300,-0.5028797388076782,10.863565444946287,0.2015899419784546,-0.3141281902790069,0.0767376869916915,0.3723877668380737,jumping
1761304483418300000,-0.6432734131813049,10.30988311767578,0.5576261281967163,-0.298857033252716,0.2086806893348693,0.2770955860614776,jumping
1761304483428436200,-0.7412607669830322,9.166952133178713,1.0997456312179563,-0.2750339806079864,0.334515243768692,0.2349471300840377,jumping
1761304483438572500,-0.934036135673523,8.04822826385498,1.567484974861145,-0.2597627937793731,0.3638359010219574,0.2361688166856765,jumping
1761304483448708900,-0.7813190817832947,7.3686370849609375,1.5021599531173706,-0.3110739588737488,0.2966426908969879,0.2880908250808716,jumping
1761304483458845200,-0.3860071897506714,6.838858604431152,1.1498615741729736,-0.4027010500431061,0.2141783237457275,0.329628437757492,jumping
1761304483468981800,0.9757381677627563,6.421050071716309,1.338726282119751,-0.4534013867378235,0.1616454571485519,0.2917559146881103,jumping
1761304483479118000,2.122498035430908,5.829511642456055,2.0571467876434326,-0.4601207077503204,0.1170536056160926,0.2221193313598632,jumping
1761304483489254400,2.9552478790283203,5.140556335449219,2.393439769744873,-0.4430169761180877,0.10178242623806,0.1506502032279968,jumping
1761304483499390700,3.662966728210449,4.49520206451416,2.132366180419922,-0.3800997138023376,0.1500393599271774,0.1488176584243774,jumping
1761304483509527300,3.7832493782043457,4.480815887451172,1.5623693466186523,-0.2481566965579986,0.2996969223022461,0.2654894888401031,jumping
1761304483519663600,2.9986047744750977,5.353614807128906,0.8964555263519287,-0.1156028434634208,0.4689016342163086,0.3760528564453125,jumping
1761304483529800000,2.1470112800598145,6.825254440307617,-0.2684036493301391,-0.1522536724805832,0.4896704256534576,0.2514399886131286,jumping
1761304483539936300,2.1272003650665283,7.340937614440918,-1.5993705987930298,-0.277477353811264,0.2819823622703552,-0.0845259875059127,jumping
1761304483550072800,1.0553301572799685,5.892078399658203,-1.1118396520614624,-0.2640387415885925,0.0100789796561002,-0.2598391473293304,jumping
1761304483560209200,-0.3423122763633728,4.700750350952148,0.4847986698150635,-0.1870719790458679,-0.1493521481752395,-0.2586174607276916,jumping
1761304483570345500,-1.5641489028930664,4.731655120849609,1.3396899700164795,-0.1168245375156402,-0.2037175595760345,-0.2250208556652069,jumping
1761304483580481800,-1.8061494827270508,5.20545768737793,1.7142574787139893,-0.0459662564098835,-0.197609081864357,-0.1987544298171997,jumping
1761304483590618400,-1.481416940689087,5.505494117736816,1.87223219871521,0.008399149402976,-0.1133121699094772,-0.1547734290361404,jumping
1761304483600754700,-1.2341057062149048,5.608609199523926,1.82502555847168,0.0542126931250095,-0.0051922015845775,-0.1016297116875648,jumping
1761304483610891000,-1.2504838705062866,5.785475730895996,1.730546474456787,0.0688730254769325,0.0773485377430915,-0.0778066664934158,jumping
1761304483621027300,-0.7602684497833252,5.697033882141113,1.6316421031951904,0.0529909990727901,0.1396549493074417,-0.0906344652175903,jumping
1761304483631164000,-0.2887681722640991,5.210075378417969,1.53316330909729,0.0560452342033386,0.1512610465288162,-0.0796392112970352,jumping
1761304483641300200,0.2271734476089477,4.90989875793457,1.4545762538909912,0.081700824201107,0.1152210608124733,-0.0906344652175903,jumping
1761304483651436500,0.9968303442001344,5.046330451965332,1.2691080570220947,0.1061347126960754,0.0822353139519691,-0.1425564736127853,jumping
1761304483661572900,1.3398317098617554,5.26767635345459,1.1753792762756348,0.1134648770093917,0.0999498814344406,-0.1914242655038833,jumping
1761304483671709400,1.325319766998291,5.506434440612793,1.5065014362335205,0.1507265567779541,0.0424538850784301,-0.2207449227571487,jumping
1761304483681845800,0.9196857213974,5.641366958618164,1.0045595169067385,0.1763821393251419,-0.0516165941953659,-0.2225774675607681,jumping
1761304483691982000,0.2282173633575439,5.680178642272949,0.4625461101531982,0.210589587688446,-0.1133121699094772,-0.1840940862894058,jumping
1761304483702118400,-0.0051779747009277,5.477032661437988,1.0248761177062988,0.2759502530097961,-0.1542389392852783,-0.1211768239736557,jumping
1761304483722391300,-0.0297483205795288,5.402187347412109,1.1734304428100586,0.372464120388031,-0.0821589529514312,-0.0435992218554019,jumping
1761304483732527600,0.3960455656051636,5.663494110107422,1.0642592906951904,0.4005630910396576,-0.0222959257662296,-0.0845259875059127,jumping
1761304483742664000,0.9699115753173828,6.307245254516602,1.210336446762085,0.4237752854824066,0.0265718549489974,-0.1822615563869476,jumping
1761304483752800300,1.1815613508224487,6.924334526062012,1.3292484283447266,0.4457657933235168,0.0662769302725792,-0.2690018713474273,jumping
1761304483762936800,1.2105510234832764,6.8939208984375,1.3741689920425415,0.4989095032215118,0.0932305604219436,-0.3050418496131897,jumping
1761304483773073200,1.143543720245361,8.124993324279785,1.3855289220809937,0.6180247068405151,0.0981173440814018,-0.2995442152023315,jumping
1761304483783209500,1.1200978755950928,8.81589126586914,1.5329644680023191,0.7774558663368225,0.0369562581181526,-0.2665584683418274,jumping
1761304483793345800,0.8648103475570679,9.560011863708496,1.5345356464385986,0.9820896983146667,-0.0589467622339725,-0.2085279822349548,jumping
1761304483803482000,0.8372359871864319,9.915863037109377,1.922597050666809,1.1825239658355713,-0.1218640282750129,-0.1718771457672119,jumping
1761304483813618700,0.8707048296928406,9.873404502868652,2.129924774169922,1.334014058113098,-0.1499630063772201,-0.1865374743938446,jumping
1761304483823755000,0.7416322827339172,9.494180679321287,2.473128318786621,1.4500750303268433,-0.1346918195486068,-0.2280751019716262,jumping
1761304483833891300,0.6845598816871643,8.715507507324219,2.540513038635254,1.518489956855774,-0.0503949001431465,-0.2854947447776794,jumping
1761304483844027600,0.9209950566291808,7.777542114257812,2.318760871887207,1.5893481969833374,0.032069481909275,-0.341081827878952,jumping
1761304483854164200,1.1262214183807373,6.377067565917969,2.086145639419556,1.7548878192901611,0.0767376869916915,-0.3868953883647918,jumping
1761304483864300500,1.4031856060028076,4.397314071655273,2.0973920822143555,1.8654512166976929,0.124383769929409,-0.4125509560108185,jumping
1761304483874436900,1.2985293865203855,1.88204288482666,1.5982835292816162,1.7805434465408323,0.2068481594324112,-0.4204919934272766,jumping
1761304483884573200,1.1678370237350464,-1.010284423828125,0.7698817253112793,1.6314966678619385,0.2496074587106704,-0.4675272107124328,jumping
1761304483894709800,0.8767099976539612,-4.083545207977295,0.5159322619438171,1.415867567062378,0.2807606756687164,-0.5322770476341248,jumping
1761304483904846000,0.1171079874038696,-7.378521919250488,0.1134434342384338,1.1263259649276731,0.2746522128582001,-0.5713712573051453,jumping
1761304483914982400,-0.5326831936836243,-10.63270378112793,-0.4774935841560364,0.9075663089752196,0.2263952642679214,-0.579312264919281,jumping
1761304483925118700,-0.8849709033966064,-13.469341278076172,-0.8693884611129761,0.760962963104248,0.1885227411985397,-0.5799230933189392,jumping
1761304483935255300,-0.896978497505188,-15.505329132080078,-1.0400347709655762,0.6265766024589539,0.154926136136055,-0.5854207277297974,jumping
1761304483945391600,-0.8549442291259766,-16.48745346069336,-1.08641517162323,0.4836383163928985,0.1347681730985641,-0.60252445936203,jumping
1761304483955528000,-0.8950371742248535,-16.621566772460938,-0.9241605997085572,0.3046600818634033,0.1445417255163192,-0.5976377129554749,jumping
1761304483965664300,-1.0576910972595217,-16.117778778076172,-0.7453159093856812,0.0957503095269203,0.1463742703199386,-0.5683169960975647,jumping
1761304483975800800,-0.9753358364105223,-14.796245574951172,-0.7340009808540344,-0.0930014923214912,0.1530935913324356,-0.5334987044334412,jumping
1761304483985937200,-0.8789935111999512,-13.432558059692385,-0.3338344991207123,-0.2163926362991333,0.1738623976707458,-0.4394282400608063,jumping
1761304483996073500,-0.976531445980072,-12.084033966064451,0.1135662198066711,-0.284196674823761,0.2160108685493469,-0.2964899837970733,jumping
1761304484006209800,-0.9856276512145996,-10.640822410583496,0.3400755524635315,-0.3336753249168396,0.276484727859497,-0.152940884232521,jumping
1761304484016325400,-0.9733285903930664,-10.614827156066896,0.3055443167686462,-0.337340384721756,0.2758738994598388,-0.1034622564911842,jumping
1761304484026482700,0.128338873386383,-8.274693489074707,0.7499939799308777,-0.3483356535434723,0.2838149070739746,-0.0826934501528739,jumping
1761304484036619000,0.4911251068115234,-7.920011520385742,0.7064948081970215,-0.3465031087398529,0.3027511835098266,-0.052151083946228,jumping
1761304484046755300,0.4276503324508667,-8.349364280700684,0.7116365432739258,-0.3153499066829681,0.3027511835098266,-0.0002290677221026,jumping
1761304484056891600,0.2203689962625503,-9.023492813110352,0.618240237236023,-0.2738122940063476,0.2874799966812134,0.0559688806533813,jumping
1761304484067028200,-0.0430781655013561,-9.805684089660645,0.3707531690597534,-0.2408265322446823,0.2777064442634582,0.1231620758771896,jumping
1761304484077164500,-0.0958869010210037,-10.344626426696776,0.1250592470169067,-0.2047865390777588,0.278928130865097,0.1744732409715652,jumping
1761304484087300900,-0.205314427614212,-10.55735206604004,-0.0566064491868019,-0.166914016008377,0.2844257652759552,0.2184542566537857,jumping
1761304484097437200,-0.4624924957752228,-10.626173973083496,-0.1325755417346954,-0.1406475752592086,0.2813715040683746,0.2434989959001541,jumping
1761304484107573800,-0.5213010907173157,-10.49655055999756,0.0164412930607795,-0.112548604607582,0.2917559146881103,0.2496074587106704,jumping
1761304484117710000,-0.6549124121665955,-10.133185386657717,0.2745262384414673,-0.0917797982692718,0.2984752357006073,0.2355579733848571,jumping
1761304484127846400,-0.6348625421524048,-9.577295303344728,0.4332266449928283,-0.0752869248390197,0.3003077805042267,0.2068481594324112,jumping
1761304484137982700,-0.4778338074684143,-9.092036247253418,0.3899188339710235,-0.0606265887618064,0.3033620119094848,0.1982962936162948,jumping
1761304484148119000,-0.5329784154891968,-8.789414405822754,0.3470623195171356,-0.0563506595790386,0.3174115121364593,0.2160108685493469,jumping
1761304484158255600,-0.3693678677082062,-8.554325103759766,0.1403735727071762,-0.0716218426823616,0.329628437757492,0.2282278090715408,jumping
1761304484168392000,-0.0162587165832519,-8.496413230895996,0.0453595370054245,-0.1058292910456657,0.3839938640594482,0.2416664510965347,jumping
1761304484178528300,0.1523702144622802,-8.629587173461914,0.0070494562387466,-0.1375933438539505,0.4328616261482239,0.2404447495937347,jumping
1761304484188664600,0.3718282580375671,-9.025001525878906,-0.0045810043811798,-0.1827960461378097,0.4585172235965729,0.2306711971759796,jumping
1761304484198801200,0.1736350059509277,-9.605440139770508,-0.1942276060581207,-0.2457133084535598,0.470734179019928,0.248996615409851,jumping
1761304484208937500,-0.0738147497177124,-10.160085678100586,-0.4127393960952759,-0.326345145702362,0.5061632990837097,0.2978644073009491,jumping
1761304484219073800,-0.1545179635286331,-10.376079559326172,-0.3185426890850067,-0.4063661396503448,0.5605286955833435,0.3381803035736084,jumping
1761304484229210000,-0.0932044684886932,-9.883828163146973,0.0503994226455688,-0.5248705148696899,0.6417713761329651,0.385215550661087,jumping
1761304484239346400,-0.4576807618141174,-8.274290084838867,0.5485117435455322,-0.6409314870834351,0.5929036140441895,0.3943782746791839,jumping
1761304484249483000,-0.889214813709259,-5.394967555999756,0.3004440665245056,-0.7918107509613037,0.5837408900260925,0.3351260721683502,jumping
1761304484259619300,-1.206817865371704,-2.452608585357666,0.0604069828987121,-0.8657232522964478,0.5806866884231567,0.308859646320343,jumping
1761304484269755600,-0.9607436656951904,0.4063558578491211,0.0863800048828125,-0.7857022881507874,0.5757998824119568,0.3216874301433563,jumping
1761304484279892000,0.131410539150238,3.4061059951782227,0.5296053290367126,-0.6128324866294861,0.5684697031974792,0.3882697820663452,jumping
1761304484290028500,1.134674310684204,6.618419647216797,1.3341867923736572,-0.4729484915733337,0.4072060585021972,0.5342622995376587,jumping
1761304484300164900,1.8128137588500977,10.119937896728516,0.5468361377716064,-0.4497362971305847,0.2416664510965347,0.6521558165550232,jumping
1761304484310301200,2.959733724594116,13.311936378479004,0.753677248954773,-0.435075968503952,0.2386122047901153,0.6008446216583252,jumping
1761304484320437500,4.605338096618652,14.94412612915039,2.4089455604553223,-0.4778352677822113,0.387658953666687,0.5373165011405945,jumping
1761304484330574000,4.296397686004639,15.202064514160156,2.459347486495972,-0.5236487984657288,0.4835619628429413,0.4896704256534576,jumping
1761304484340710400,3.2309019565582275,14.484710693359377,2.075136423110962,-0.5407525300979614,0.5104392170906067,0.3711660802364349,jumping
1761304484350846700,1.9924490451812744,13.478941917419434,1.8014203310012815,-0.5230379700660706,0.4322507977485657,0.202572226524353,jumping
1761304484360983000,1.1085755825042725,12.34514617919922,1.9646151065826416,-0.4698942601680755,0.2667111754417419,0.0559688806533813,jumping
1761304484371119600,-0.2751641273498535,10.90039348602295,2.014556407928467,-0.4161396920681,0.0962847992777824,-0.0069483877159655,jumping
1761304484381256000,-1.0014232397079468,9.48763370513916,2.08743953704834,-0.386208176612854,-0.0345128700137138,-0.0191653333604335,jumping
1761304484391392300,-0.1856947541236877,8.873703956604004,1.3234213590621948,-0.3990359604358673,-0.0821589529514312,-0.0484860017895698,jumping
1761304484401528600,1.3202824592590332,8.74815845489502,0.3826817274093628,-0.3953709006309509,-0.1047603040933609,-0.098575472831726,jumping
1761304484411665200,2.311753988265991,8.529205322265625,0.124443769454956,-0.3721587061882019,-0.0784938707947731,-0.1480541080236435,jumping
1761304484421801500,2.5827345848083496,8.061678886413574,0.1475043296813964,-0.3532224297523498,-0.0204633828252553,-0.2225774675607681,jumping
1761304484431937800,2.2709436416625977,7.690349578857422,0.1263476610183715,-0.3367295563220978,0.0161874517798423,-0.2726669311523437,jumping
1761304484442074000,1.4748520851135254,7.517795562744141,-0.0274275541305542,-0.326345145702362,0.0027488125488162,-0.320313036441803,jumping
1761304484452210700,0.5798044204711914,7.400768280029297,-0.1842182874679565,-0.3642176687717438,-0.0387887991964817,-0.3930038511753082,jumping
1761304484462347000,-0.3307715952396393,7.375288009643555,-0.3858548402786255,-0.4149180054664612,-0.0870457366108894,-0.4626404345035553,jumping
1761304484472483300,-0.8344781398773193,7.029505729675293,-0.3989901542663574,-0.3831539452075958,-0.2440334856510162,-0.4968478977680206,jumping
1761304484482619600,-1.5864943265914917,6.838935852050781,-0.1907850503921508,-0.277477353811264,-0.3930802047252655,-0.4345414638519287,jumping
1761304484492756000,-1.365957498550415,6.695705413818359,-0.2837388515472412,-0.20234315097332,-0.4370612204074859,-0.4284330010414123,jumping
1761304484502892500,0.1217797398567199,6.22350025177002,-0.5581378936767578,-0.1039967462420463,-0.4315635859966278,-0.5701495409011841,jumping
1761304484513028900,1.1590678691864014,5.813377380371094,-0.4142947196960449,-0.0563506595790386,-0.4315635859966278,-0.71369868516922,jumping
1761304484523165200,1.6765952110290527,5.254242897033691,-0.3161396980285644,-0.0777303129434585,-0.4431696832180023,-0.7979955673217773,jumping
1761304484533301500,0.7444194555282593,4.419363021850586,-0.107437252998352,-0.1143811494112014,-0.451110690832138,-0.4950153529644012,jumping
1761304484543438000,-2.35101056098938,3.387012481689453,0.7015684843063354,-0.1528645306825637,-0.568393349647522,0.1842468082904815,jumping
1761304484553574400,-4.548465728759766,1.6066408157348633,0.3284686803817749,-0.2829749882221222,-0.6313106417655945,0.5898494124412537,jumping
1761304484563710700,-0.8780509233474731,1.6577415466308594,0.3838167190551758,-0.3324536085128784,-0.5720584392547607,0.8207496404647827,jumping
1761304484573847000,-0.7738403677940369,2.413266181945801,1.041832685470581,-0.3782671689987182,-0.5971031785011292,0.947805881500244,jumping
1761304484583983400,-0.2633495926856994,2.888510704040528,1.2487820386886597,-0.3501681983470917,-0.3936910629272461,1.000338792800903,jumping
1761304484594120000,-1.4353687763214111,3.0711965560913086,2.905956745147705,-0.2408265322446823,-0.3326063454151153,1.0834139585494995,jumping
1761304484604256300,0.7574210166931152,2.426748275756836,1.757441759109497,-0.1632489264011383,0.0393996499478817,1.058980107307434,jumping
1761304484614392600,-0.4658560752868652,1.2443885803222656,3.2802677154541016,-0.0545181185007095,-0.1695101112127304,1.146942138671875,jumping
1761304484624529000,1.045727252960205,1.291521072387695,0.2180089950561523,-0.0569615066051483,-0.3026748299598694,1.149996280670166,jumping
1761304484634665500,1.4973783493041992,0.2524671554565429,0.1143578290939331,-0.0881147161126136,-0.268467366695404,1.0418763160705566,jumping
1761304484644801800,2.008108615875244,-1.0880861282348633,0.4659042358398437,-0.0685676038265228,-0.1957765519618988,0.9294804334640504,jumping
1761304484654938000,1.709122896194458,-1.876993179321289,0.5073566436767578,-0.0166455879807472,-0.08521319180727,0.8665632009506226,jumping
1761304484665074400,1.4796477556228638,-1.6176881790161133,0.5669074058532715,0.0004581354442052,-0.0681094676256179,0.8519028425216675,jumping
1761304484675210800,1.3990817070007324,-1.6001663208007812,0.563544511795044,-0.0313059203326702,-0.0662769302725792,0.7773795127868652,jumping
1761304484685347000,1.181483030319214,-0.9405965805053712,-0.3025399446487427,-0.072843536734581,-0.1218640282750129,0.6814764738082886,jumping
1761304484695483600,1.4284926652908323,-1.2595329284667969,-0.9297980666160583,-0.1333174109458923,-0.0583359114825725,0.5880168676376343,jumping
1761304484705620000,1.2401608228683472,-1.1859121322631836,-0.9117568731307985,-0.2451024651527404,0.0613901503384113,0.4646256864070892,jumping
1761304484715756300,1.4253299236297607,-1.3698387145996094,-1.7054176330566406,-0.4124746024608612,0.0749051421880722,0.3149681091308594,jumping
1761304484725892600,1.109635353088379,-1.9990410804748533,-2.5988168716430664,-0.6134433746337891,0.1366007179021835,0.2673220336437225,jumping
1761304484736029000,0.0890228748321533,-3.167427062988281,-2.985471487045288,-0.8681666851043701,0.3229091465473175,0.2954210042953491,jumping
1761304484746165500,-0.5895223617553711,-4.026134967803955,-3.3950295448303223,-1.1613733768463137,0.4823402762413025,0.355284035205841,jumping
1761304484756301800,-0.6716347932815552,-4.1693196296691895,-4.4455766677856445,-1.5590349435806274,0.6179483532905579,0.3943782746791839,jumping
1761304484766438100,-0.5541247129440308,-4.129858493804932,-5.163019180297852,-1.9421124458312988,0.706521213054657,0.3168006539344787,jumping
1761304484786711000,0.7569749355316162,-3.3414196968078613,-4.905130386352539,-2.4698846340179443,0.627721905708313,-0.0319931246340274,jumping
1761304484796847400,1.2489646673202517,-2.631185531616211,-4.763846397399902,-2.675129175186157,0.5183802843093872,-0.2885489761829376,jumping
1761304484806983700,0.6498785018920898,-2.67576265335083,-4.391435146331787,-2.830895185470581,0.417590469121933,-0.4601970613002777,jumping
1761304484817120000,0.1102396249771118,-3.370532989501953,-5.10164213180542,-2.946956157684326,0.2654894888401031,-0.4937936663627624,jumping
1761304484827256600,0.4750323295593261,-3.790915966033936,-4.588874816894531,-3.0605738162994385,0.3729985952377319,-0.6361210346221924,jumping
1761304484837393000,1.636960506439209,-3.578003406524658,-3.093916893005371,-3.189462661743164,0.526321291923523,-0.8096016645431519,jumping
1761304484847529200,1.6480969190597534,-3.252506732940674,-2.0268096923828125,-3.302469253540039,0.7450045943260193,-0.949485719203949,jumping
1761304484857665500,1.0651894807815552,-2.7541418075561523,-1.2983546257019043,-3.548640727996826,0.1653105467557907,-0.9061155319213868,jumping
1761304484867801900,-0.1904764175415039,-2.427015781402588,-4.299455642700195,-3.706850290298462,0.5049416422843933,-0.9879691004753112,jumping
1761304484877938400,1.6725467443466189,-2.5445828437805176,-1.8334863185882568,-3.579793930053711,0.7407286763191223,-1.0307283401489258,jumping
1761304484888074800,1.272692084312439,-3.0888257026672363,-3.639352560043335,-3.89071536064148,0.7798228859901428,-1.102197527885437,jumping
1761304484898211000,1.1406004428863523,-2.123044490814209,-4.642833709716797,-4.291507244110107,1.0498173236846924,-1.1620604991912842,jumping
1761304484908347400,0.4380072355270386,-1.6565790176391602,-4.696593284606934,-4.668400287628174,1.363792896270752,-1.1767208576202393,jumping
1761304484918483700,0.3229722380638122,-1.884305953979492,-5.299807548522949,-5.054455757141113,1.6191270351409912,-1.1651147603988647,jumping
1761304484928620300,0.216477483510971,-2.0211057662963867,-5.476767063140869,-5.397751808166504,1.78955340385437,-1.190159559249878,jumping
1761304484938756600,0.3081685304641723,-1.8022127151489256,-5.894501686096191,-5.612770080566406,1.7467941045761108,-1.284917235374451,jumping
1761304484948893000,0.4369041919708252,-1.5640740394592283,-5.482291221618652,-5.55962610244751,1.3833400011062622,-1.456565260887146,jumping
1761304484959029200,0.8184230923652649,-1.5199053287506104,-4.321620941162109,-5.259700298309326,0.5929036140441895,-1.6550906896591189,jumping
1761304484969165600,1.2729649543762207,-1.280397891998291,-3.573296070098877,-4.950000762939453,-0.481042206287384,-1.828571319580078,jumping
1761304484979302100,1.5813816785812378,-1.0020809173583984,-3.2539544105529785,-4.686725616455078,-1.3905937671661377,-1.9037054777145384,jumping
1761304484989438500,1.061793327331543,-1.2458207607269287,-2.218149185180664,-4.448495388031006,-2.0148797035217285,-1.8951536417007449,jumping
1761304484999574800,0.9503418803215028,-1.7248324155807495,-0.9909267425537108,-4.204690933227539,-2.1620938777923584,-1.7968071699142456,jumping
1761304485009711000,0.3411580324172973,-2.100392341613769,0.6844396591186523,-4.045870304107666,-1.816965222358704,-1.5597984790802002,jumping
1761304485019847400,-0.431682676076889,-2.634838342666626,1.6014699935913086,-3.9493565559387207,-1.5921733379364014,-1.3020209074020386,jumping
1761304485029984000,-1.0165826082229614,-3.0648913383483887,1.8438940048217771,-3.834517240524292,-1.757102131843567,-1.0539405345916748,jumping
1761304485040120300,-1.1673450469970703,-3.4493508338928223,1.9906635284423828,-3.533369541168213,-1.072953224182129,-0.8004390001296997,jumping
1761304485050256600,-1.4850562810897827,-3.3183789253234863,5.928858757019043,,,,jumping
1761304485060393000,-1.674046516418457,-3.009894371032715,4.3264007568359375,-3.0788991451263428,0.4847836494445801,-0.3832302987575531,jumping
1761304485070529500,0.0598503351211547,-2.035590171813965,2.1691598892211914,-3.1381514072418213,0.9667421579360962,-0.5347204208374023,jumping
1761304485080665900,1.933827519416809,-0.4489310383796692,1.457261085510254,-3.382490396499634,1.6014124155044556,-1.005072832107544,jumping
1761304485090802200,3.413330554962158,0.9910879135131836,1.5037975311279297,-3.797255516052246,2.3484785556793213,-1.466949701309204,jumping
1761304485100938500,3.2054569721221924,-0.0061929374933242,2.27107048034668,-4.106955051422119,2.976505994796753,-1.7290031909942627,jumping
1761304485111074800,0.9592818021774292,-0.0640098601579666,3.075305938720703,-4.036707878112793,3.2012977600097656,-1.7314465045928955,jumping
1761304485121211400,-0.6059036254882812,0.1512040793895721,3.9429006576538086,-3.617666482925415,2.532343626022339,-1.623326539993286,jumping
1761304485131347700,-2.0310840606689453,-0.109077513217926,3.346437454223633,-2.978109359741211,0.789596438407898,-1.4718364477157593,jumping
1761304485141484000,-2.133735656738281,-0.7791446447372437,1.8265419006347656,-2.2744133472442627,-1.176186442375183,-1.4846643209457395,jumping
1761304485151620400,-1.4049649238586426,-1.876431345939636,0.8262758255004883,-1.6886109113693235,-2.453468084335327,-1.631267547607422,jumping
1761304485161756700,-1.6869932413101196,-3.018453598022461,0.5130577087402344,-1.121057391166687,-3.065613269805908,-1.7320574522018433,jumping
1761304485171893000,-1.8881527185440063,-2.948521614074707,0.9004545211791992,-0.5260922312736511,-3.6227059364318848,-1.7546586990356443,jumping
1761304485182029600,-1.1367660760879517,-2.462845802307129,1.548680305480957,0.1843231618404388,-4.245770454406738,-1.7448852062225342,jumping
1761304485192166000,-0.121018648147583,-2.157517194747925,3.310511589050293,1.0419527292251587,-4.550582885742188,-1.712510347366333,jumping
1761304485202302200,0.2115637063980102,-2.113701581954956,5.243069648742676,1.0162971019744873,-3.143801689147949,-1.1809967756271362,jumping
1761304485212438500,-0.5934065580368042,-3.282454013824463,4.678152084350586,1.1532032489776611,-2.8811373710632324,-0.653224766254425,jumping
1761304485222575000,-1.1973412036895752,-2.0794920921325684,4.108895301818848,0.7603521347045898,-2.352067470550537,-0.5524349808692932,jumping
1761304485232711400,0.6527619361877441,0.4490653872489929,1.6238374710083008,0.3077143132686615,-1.970287799835205,-0.7295807003974915,jumping
1761304485242847700,1.1510138511657717,0.6200516223907471,1.7236223220825195,0.0523801520466804,-1.4302988052368164,-0.7662315368652344,jumping
1761304485252984000,-0.1984317302703857,-0.1974965929985046,2.975579261779785,0.0004581354442052,-0.8573241233825684,-0.6031352877616882,jumping
1761304485263120400,-1.2416232824325562,-0.1564902663230896,4.737679481506348,0.1995943486690521,-0.0827698037028312,-0.419881135225296,jumping
1761304485273257000,-1.6211445331573486,0.4859812557697296,6.6616973876953125,0.4634803533554077,0.9068791270256042,-0.1602710485458374,jumping
1761304485283393300,-2.449328660964966,-0.0175855755805969,6.572727203369141,0.6387935280799866,1.7956619262695312,0.276484727859497,jumping
1761304485293529600,-3.0567269325256348,-0.7375551462173462,5.099480628967285,0.7542436718940735,2.176219701766968,0.7718818783760071,jumping
1761304485303666000,-2.6849608421325684,-1.2060015201568604,3.5199174880981445,0.9796462655067444,2.1230759620666504,1.1567156314849854,jumping
1761304485313802500,-1.7219188213348389,-1.3396518230438232,2.762523651123047,1.3767733573913574,1.889732360839844,1.3613494634628296,jumping
1761304485323938800,-0.652669370174408,-1.37373948097229,2.416733741760254,1.7683264017105105,1.4761887788772583,1.354019284248352,jumping
1761304485334075100,0.4637197256088257,-1.548966407775879,1.429891586303711,1.9937291145324707,0.7492805123329163,1.1664892435073853,jumping
1761304485344211500,1.4622833728790283,-1.7340781688690186,-0.0282344818115234,1.933866024017334,-0.2904578745365143,0.8384642004966736,jumping
1761304485354347800,2.15141224861145,-1.5957133769989014,-1.484114646911621,1.7493902444839478,-1.0613471269607544,0.5067741274833679,jumping
1761304485364484000,1.814336180686951,-1.5125045776367188,-1.1017227172851562,1.583850622177124,-1.179240584373474,0.2911450862884521,jumping
1761304485374620700,0.8989073038101196,-1.362901210784912,-0.1246166229248046,1.443355679512024,-0.7058340311050415,0.2624352574348449,jumping
1761304485384757000,-0.1182827949523925,-1.620548963546753,1.0886116027832031,1.2710968255996704,-0.1072036921977996,0.3284067511558532,jumping
1761304485394893300,-0.4708021283149719,-1.4316375255584717,0.4106054306030273,1.0413419008255005,0.1720298528671264,0.3705552220344543,jumping
1761304485405029600,-0.4324364066123962,-0.7835392951965332,-0.2619342803955078,0.7078192830085754,0.3259633779525757,0.334515243768692,jumping
1761304485415166200,-0.0514297485351562,-0.5417789816856384,-0.500737190246582,0.4518742561340332,0.947805881500244,0.3479538559913635,jumping
1761304485425302500,-0.2503542304039001,-0.9783707857131958,2.156544685363769,0.2319692522287368,1.401665449142456,0.408427745103836,jumping
1761304485435438800,0.0950214862823486,-1.0874197483062744,0.6519250869750977,0.0432174429297447,1.6844877004623413,0.4463002681732178,jumping
1761304485445575200,0.3385681509971618,-0.9180413484573364,0.3446826934814453,-0.051463883370161,1.9856353998184204,0.4182012975215912,jumping
1761304485455711500,0.5120446085929871,-0.6321704983711243,0.3503141403198242,-0.0642916709184646,1.950206279754639,0.3424562513828277,jumping
1761304485465848000,0.694835364818573,-0.4704281687736511,-0.5100641250610352,-0.0594048947095871,1.558042287826538,0.2477749139070511,jumping
1761304485475984400,0.4927046298980713,-0.027366816997528,-1.270477294921875,0.0310004986822605,1.0956308841705322,0.1750840991735458,jumping
1761304485486120700,-0.0206021964550018,0.3190416097640991,-1.1989765167236328,0.1953184157609939,0.6216134428977966,0.0999498814344406,jumping
1761304485496257000,0.0727493166923523,0.4084348678588867,-0.7689399719238281,0.3907895386219024,0.2428881376981735,0.0101553360000252,jumping
1761304485506393300,0.2154505550861358,0.229674756526947,-0.2469997406005859,0.5856497883796692,0.0626118406653404,-0.0723090469837188,jumping
1761304485516529700,0.3070470094680786,-0.0140735507011413,-0.1043882369995117,0.7133168578147888,-0.023517619818449,-0.1627144366502761,jumping
1761304485526666200,0.2634068727493286,-0.1775199770927429,-0.4583806991577148,0.7029324769973755,-0.0430647321045398,-0.2244100123643875,jumping
1761304485536802600,-0.1413744539022445,-0.2810596227645874,-0.7884664535522461,0.5856497883796692,0.023517619818449,-0.2011978179216385,jumping
1761304485546939000,-0.6635766625404358,-0.448474109172821,-0.8617401123046875,0.4170559644699096,0.2123457789421081,-0.0924670025706291,jumping
1761304485557075200,-0.9249017238616944,-0.696890115737915,-0.764923095703125,0.2539597451686859,0.4346941709518432,0.0290916003286838,jumping
1761304485567211800,-0.7843858599662781,-0.7878175973892212,-0.590825080871582,0.1421747058629989,0.6356629133224487,0.1023932695388794,jumping
1761304485577348000,-0.5277641415596008,-0.6152686476707458,-0.3097248077392578,0.1122431829571724,0.7798228859901428,0.1463742703199386,jumping
1761304485587484400,-0.2851560115814209,-0.377509593963623,-0.1166925430297851,0.1476723253726959,0.8390750885009766,0.1555369794368744,jumping
1761304485597620700,-0.0094918832182884,-0.1146025657653808,-0.2166042327880859,0.2002051919698715,0.8140303492546082,0.1225512325763702,jumping
1761304485607757000,0.1548570692539215,0.1224676370620727,-0.4992809295654297,0.2374668717384338,0.6539883613586426,0.0535254925489425,jumping
1761304485617893600,0.1350646018981933,0.1807422637939453,-0.7563505172729492,0.3260397315025329,0.4059843719005584,-0.017943637445569,jumping
1761304485628030000,0.046316921710968,-0.0057711601257324,-0.7102413177490234,0.4830274581909179,0.1616454571485519,-0.060702946037054,jumping
1761304485638166300,-0.0988491624593734,-0.2587946653366089,-0.6459016799926758,0.6302416324615479,-0.0760504826903343,-0.0771958231925964,jumping
1761304485648302600,-0.2458439320325851,-0.4133378267288208,-0.950918197631836,0.7041541934013367,-0.3173351585865021,-0.0790283605456352,jumping
1761304485658439200,-0.478980004787445,-0.404659628868103,-1.30029296875,0.6998782753944397,-0.5396835803985596,-0.0613137930631637,jumping
1761304485668575500,-0.7477660179138184,-0.4198035001754761,-1.464564323425293,0.6748335361480713,-0.6337540149688721,-0.0038941511884331,jumping
1761304485678711800,-0.8989523649215698,-0.5709394812583923,-1.4205751419067385,0.6259657144546509,-0.6245913505554199,0.0675749778747558,jumping
1761304485688848100,-0.7986723780632019,-0.6720271110534668,-1.4279756546020508,0.510515570640564,-0.536629319190979,0.1420983374118805,jumping
1761304485698984400,-0.6588307023048401,-0.6296075582504272,-1.576258659362793,0.3419217467308044,-0.3625378608703613,0.2117349356412887,jumping
1761304485709120800,-0.3784257769584656,-0.3486368656158447,-1.430866241455078,0.1739387512207031,-0.1108687743544578,0.2551050782203674,jumping
1761304485719257300,0.0101565420627594,0.0477620363235473,-1.0495376586914062,0.0364981219172477,0.1469851285219192,0.2483857721090316,jumping
1761304485729393700,0.3848307132720947,0.2949616909027099,-0.6561689376831055,-0.036192700266838,0.3503972589969635,0.2105132341384887,jumping
1761304485739530000,0.5486869215965271,0.2984499931335449,-0.3641262054443359,-0.0423011742532253,0.4927246570587158,0.1683647781610489,jumping
1761304485749666300,0.6885179877281189,0.2885308265686035,-0.1575222015380859,0.0206160955131053,0.5855734348297119,0.1225512325763702,jumping
1761304485759803000,0.742935299873352,0.3815779685974121,-0.1644735336303711,0.1152974218130111,0.6130616068840027,0.0840678513050079,jumping
1761304485769939200,0.6427557468414307,0.2978317737579345,-0.4158592224121094,0.1867665499448776,0.5935144424438477,0.064520739018917,jumping
1761304485780075500,0.3517248034477234,0.2090239524841308,-0.8808727264404297,0.2160872220993042,0.4951680600643158,0.0620773509144783,jumping
1761304485790211800,0.1368133127689361,0.0616694688796997,-1.3277196884155271,0.2307475507259369,0.3882697820663452,0.0681858286261558,jumping
1761304485800348200,0.1510183960199356,0.1559721231460571,-1.4821233749389648,0.2301367074251175,0.3058054149150848,0.0541363395750522,jumping
1761304485810484700,0.3766795694828033,0.3187483549118042,-1.5892915725708008,0.1879882365465164,0.1891335844993591,0.0083227939903736,jumping
1761304485820621000,0.5455188751220703,0.5139435529708862,-1.8051528930664065,0.1226275861263275,0.040621344000101,-0.0594812519848346,jumping
1761304485830757400,0.5118004083633423,0.6091901063919067,-1.8570709228515625,0.0664296373724937,-0.1078145429491996,-0.1138466596603393,jumping
1761304485840893700,0.4620045721530914,0.436522364616394,-1.6085100173950195,0.0450499840080738,-0.1841704547405243,-0.1590493619441986,jumping
1761304485851030000,0.3577500581741333,0.2549036741256714,-1.1385822296142578,0.0438282899558544,-0.2360924631357193,-0.1926459521055221,jumping
1761304485861166600,0.1099633947014808,0.0737785100936889,-0.7912092208862305,0.0676513314247131,-0.2666348218917846,-0.1957001835107803,jumping
1761304485871303000,-0.057722195982933,-0.1064591407775878,-0.3482637405395508,0.111632339656353,-0.2324273884296417,-0.1798181682825088,jumping
1761304485881439200,-0.0881718099117279,-0.144843578338623,0.0731039047241211,0.1550024896860122,-0.1230857223272323,-0.1578276604413986,jumping
1761304485891575600,-0.1501452773809433,-0.2083039283752441,0.1714515686035156,0.1678302884101867,-0.0259610079228878,-0.1327829211950302,jumping
1761304485901712000,-0.1547313779592514,-0.2729085683822632,0.0737667083740234,0.1562241911888122,0.10178242623806,-0.1028514057397842,jumping
1761304485911848400,-0.2617095112800598,-0.3013123273849487,0.019057273864746,0.128736063838005,0.2111240774393081,-0.060702946037054,jumping
1761304485921984800,-0.4210345447063446,-0.3695718050003052,-0.272404670715332,0.0963611528277397,0.2434989959001541,-0.0161110963672399,jumping
1761304485932121000,-0.4465214908123016,-0.3565183877944946,-0.436955451965332,0.0713164210319519,0.2483857721090316,0.0248156692832708,jumping
1761304485942257400,-0.2555825412273407,-0.2651115655899048,-0.5202398300170898,0.0505476109683513,0.2416664510965347,0.0406976975500583,jumping
1761304485952393700,-0.048106849193573,-0.1918884515762329,-0.5610218048095703,0.0145076224580407,0.2166217118501663,0.022372281178832,jumping
1761304485962530300,0.0807645618915557,-0.0624870061874389,-0.5136289596557617,0.0004581354442052,0.1946312040090561,-0.0026724566705524,jumping
1761304485972666600,0.1342953294515609,0.0026150941848754,-0.2892684936523437,0.0206160955131053,0.1805817186832428,-0.0228304155170917,jumping
1761304485982803000,0.0897784829139709,-0.0395375490188598,-0.1057291030883789,0.0419957488775253,0.1530935913324356,-0.037490751594305,jumping
1761304485992939300,-0.0256950855255126,-0.1671578884124755,-0.1372356414794922,0.0627645552158355,0.1335464864969253,-0.0417666807770729,jumping
1761304486003075800,-0.0875020325183868,-0.14851975440979,-0.0655975341796875,0.0847550556063652,0.1176644563674926,-0.0411558337509632,jumping
1761304486013212200,-0.1877797245979309,-0.191629409790039,0.0056953430175781,0.0798682793974876,0.0932305604219436,-0.017943637445569,jumping
1761304486023348500,-0.3051293790340423,-0.2709205150604248,0.1635332107543945,0.1079672500491142,0.1433200389146804,0.0174855031073093,jumping
1761304486033484800,-0.3883006572723388,-0.3622750043869018,0.3263425827026367,0.134233683347702,0.1561478376388549,0.0584122687578201,jumping
1761304486043621000,-0.3567553162574768,-0.4557164907455444,0.0080633163452148,0.1067455559968948,0.1146102175116539,0.1036149635910987,jumping
1761304486053757700,-0.4708947539329529,-0.4227864742279053,0.1473588943481445,0.2081461995840072,0.3455104827880859,0.1414874941110611,jumping
1761304486063894000,-0.3224892616271972,-0.5476796627044678,1.1028823852539062,0.3071034550666809,0.3699443638324737,0.1592020690441131,jumping
1761304486074030300,-0.227897822856903,-0.406907320022583,-0.5180244445800781,0.2545706033706665,0.1384332627058029,0.1585912257432937,jumping
1761304486084166700,-0.3789074420928955,-0.0614655017852783,-0.7493352890014648,0.1837123185396194,0.0229067727923393,0.1659213900566101,jumping
1761304486094303000,-0.1811571419239044,0.0769989490509033,-0.6998586654663086,0.1183516532182693,-0.0339020229876041,0.1439308822154998,jumping
1761304486104439300,0.079131931066513,0.1271102428436279,-0.6609344482421875,0.0926960706710815,-0.109036237001419,0.0932305604219436,jumping
1761304486114576000,0.1897759735584259,0.15960693359375,-0.5339555740356445,0.1036913245916366,-0.2049392610788345,0.0370326153934001,jumping
1761304486124712200,0.1316691637039184,0.2451741695404052,-0.5462684631347656,0.0988045409321785,-0.2990097403526306,0.0083227939903736,jumping
1761304486134848500,-0.0181296467781066,0.1421966552734375,-0.3004474639892578,0.0957503095269203,-0.2623589038848877,0.0009926267666742,jumping
1761304486144984800,-0.0221607983112335,0.1015055179595947,0.2874431610107422,0.1220167428255081,-0.1206423342227935,-0.017943637445569,jumping
1761304486155121400,0.1378112733364105,-0.0487184524536132,0.6989250183105469,0.1696628332138061,0.0681858286261558,-0.0246629584580659,jumping
1761304486165257700,0.1170054078102111,-0.0073421001434326,0.8172597885131836,0.2179197669029235,0.2019613683223724,-0.0332148186862468,jumping
1761304486175394000,-0.039472609758377,-0.1534913778305053,0.472905158996582,0.2545706033706665,0.2074590027332306,-0.0271063465625047,jumping
1761304486185530400,-0.1243787705898284,-0.099921703338623,0.163522720336914,0.2924431264400482,0.153704434633255,-0.0240521114319562,jumping
1761304486195666700,-0.119207352399826,-0.1693394184112548,-0.2287149429321289,0.3034383654594421,0.071240060031414,-0.0185544863343238,jumping
1761304486205803300,-0.1623333096504211,-0.1152026653289794,-0.6045770645141602,0.2619007527828216,-0.032069481909275,-0.0112243182957172,jumping
1761304486215939600,-0.1312682926654815,-0.055147647857666,-0.9938116073608398,0.1739387512207031,-0.1304158866405487,-0.0081700822338461,jumping
1761304486226076000,-0.0396544933319091,-0.021348237991333,-0.9850082397460938,0.0988045409321785,-0.1517955511808395,-0.0338256657123565,jumping
1761304486236212200,0.0870134234428405,-0.0381650924682617,-0.506587028503418,0.0529909990727901,-0.1078145429491996,-0.0344365127384662,jumping
1761304486246348500,0.06085005402565,-0.2999188899993896,-0.053694725036621,0.016951011493802,-0.0259610079228878,-0.0185544863343238,jumping
1761304486256485000,-0.156865119934082,-0.3709787130355835,0.3051204681396484,0.0010689827613532,0.1005607321858406,0.0144312661141157,jumping
1761304486266621400,-0.2305804193019867,-0.3944488763809204,0.508814811706543,0.0285571087151765,0.1824142634868621,0.0370326153934001,jumping
1761304486276757800,-0.1384255290031433,-0.410457968711853,0.4592094421386719,0.0505476109683513,0.1439308822154998,0.0449736304581165,jumping
1761304486286894000,-0.1363085210323333,-0.2861887216567993,0.2262735366821289,0.0829225182533264,0.0761268362402916,0.032756682485342,jumping
1761304486297030400,-0.00108003616333,-0.1084623336791992,0.1468954086303711,0.0957503095269203,0.0412321910262107,0.018096350133419,jumping
1761304486307167000,0.078955203294754,-0.0902070999145507,0.2134151458740234,0.0865876004099845,0.0871220901608467,-0.0020616094116121,jumping
1761304486317303300,0.1603644788265228,-0.0978651046752929,0.3326845169067383,0.0835333615541458,0.1732515543699264,-0.0234412644058465,jumping
1761304486337576000,0.0897928178310394,-0.2248833179473877,-0.1024131774902343,0.07437065243721,0.1750840991735458,-0.0344365127384662,jumping
1761304486347712500,-0.0318396687507629,-0.1765522956848144,-0.4185991287231445,0.0786465853452682,0.0895654782652854,-0.0393232926726341,jumping
1761304486357848800,-0.113267183303833,-0.1591465473175048,-0.3927793502807617,0.0981936976313591,0.0216850768774747,-0.0326039716601371,jumping
1761304486367985200,-0.1484174728393554,-0.1544625759124755,-0.3062753677368164,0.1055238619446754,-0.0271827038377523,-0.0362690575420856,jumping
1761304486378121500,-0.2047206163406372,-0.0810248851776123,-0.3752450942993164,0.07498150318861,-0.0846023485064506,-0.0423775278031826,jumping
1761304486388257800,-0.1596484184265136,-0.0758416652679443,-0.4716577529907226,0.0615428611636161,-0.091932512819767,-0.037490751594305,jumping
1761304486398394400,-0.1085171699523925,-0.1601104736328125,-0.1426038742065429,0.0609320141375064,-0.0711637064814567,-0.0435992218554019,jumping
1761304486408530700,-0.0532279014587402,-0.0898511409759521,-0.0120820999145507,0.0603211671113967,-0.0699420124292373,-0.0515402369201183,jumping
1761304486418667000,0.0525701642036438,-0.1239774227142334,-0.1151332855224609,0.0322221927344799,-0.0778830274939537,-0.0680331140756607,jumping
1761304486428803300,0.1381159126758575,-0.0009260177612304,-0.0611076354980468,0.0206160955131053,-0.0308477859944105,-0.0955212414264679,jumping
1761304486438939600,0.2106862664222717,-0.0290076732635498,0.1166744232177734,0.0041232188232243,0.0198525357991457,-0.1028514057397842,jumping
1761304486449076000,0.0586822032928466,-0.0957927703857421,0.0913286209106445,-0.0050394898280501,0.0485623553395271,-0.1004080176353454,jumping
1761304486459212500,-0.0379875302314758,-0.1251540184020996,-0.0632581710815429,-0.0166455879807472,0.0638335421681404,-0.082082599401474,jumping
1761304486469348900,-0.1090941429138183,-0.2860622406005859,-0.1354179382324218,-0.0154238929972052,0.0222959257662296,-0.0649788752198219,jumping
1761304486479485200,-0.2792081832885742,-0.2725155353546142,-0.0906333923339843,0.008399149402976,-0.0076355906203389,-0.0277171935886144,jumping
1761304486489621500,-0.3229199051856994,-0.3192847967147827,0.2202377319335937,0.0450499840080738,-0.0137440636754035,-0.0002290677221026,jumping
1761304486499758000,-0.3054688572883606,-0.3518755435943603,0.3082704544067383,0.1012479364871978,-0.0149657577276229,0.0284807533025741,jumping
1761304486509894400,-0.3078483939170837,-0.3706426620483398,0.3064289093017578,0.1592784225940704,-0.0681094676256179,0.0468061715364456,jumping
1761304486520030700,-0.2823021411895752,-0.3110063076019287,-0.020461082458496,0.1794363856315612,-0.1945548504590988,0.0578014217317104,jumping
1761304486530167000,-0.1573435664176941,-0.212238073348999,-0.28839111328125,0.1537808030843734,-0.2110477238893509,0.0510821007192134,jumping
1761304486540303400,0.1231367290019989,0.0010054111480712,-0.1389093399047851,0.0725381150841713,-0.1212531775236129,0.0144312661141157,jumping
1761304486550440000,0.4241746664047241,0.183931827545166,-0.0144977569580078,-0.0154238929972052,0.0076355906203389,-0.0442100688815116,jumping
1761304486560576300,0.4444809257984161,0.2568790912628174,0.0124015808105468,-0.0777303129434585,0.0436755791306495,-0.0894127711653709,jumping
1761304486570712600,0.2377594709396362,0.2461824417114257,-0.0632429122924804,-0.1009425073862075,-0.021074229851365,-0.1187334358692169,jumping
1761304486580849000,0.0957375764846801,0.2936062812805176,0.0286788940429687,-0.1149920001626014,-0.1273616552352905,-0.1449998617172241,jumping
1761304486590985500,0.023094356060028,0.2874462604522705,0.2008495330810547,-0.1290414780378341,-0.19333316385746,-0.1553842723369598,jumping
1761304486601121800,-0.0001716017723083,0.230661392211914,0.5410995483398438,-0.0911689549684524,-0.0772721767425537,-0.1388913989067077,jumping
1761304486611258000,-0.0755678713321685,-0.1578078269958496,1.0579910278320312,0.0896418318152427,0.2502183020114898,-0.099797174334526,jumping
