timestamp,acc_x,acc_y,acc_z,gyr_x,gyr_y,gyr_z,activity
1761226582253367600,-0.575719501484558,0.2472211951553821,-1.602438119003177,1.4219955205917358,0.6184972524642944,0.0413852035999298,jumping
1761226582263380200,-1.0011853131376207,0.5151876566976309,-1.327145844617486,1.4345084428787231,0.7271078824996948,0.0653443336486816,jumping
1761226582273394400,-1.0775238719306883,0.6270341667234898,-0.7369675366044044,1.4369816780090332,0.7557737827301025,0.0483746267855167,jumping
1761226582283407400,-1.065438735730946,0.6297890183895826,-0.322569573867321,1.4288944005966189,0.8052436113357544,0.00480637839064,jumping
1761226582293421300,-1.0964053902722894,0.4761947859585285,-0.333565599656105,1.4119187593460083,0.7821106314659119,0.0525648295879364,jumping
1761226582303434500,-0.903259995632246,0.4120072682082653,0.2538520114719867,1.2856441736221311,0.7219108939170837,0.0131138293072581,jumping
1761226582313447200,-1.2393920117102564,0.673255819672346,1.1881196512430905,1.05232036113739,0.5608341693878174,-0.0573864355683326,jumping
1761226582323461400,-1.4210904949888583,1.1635364141285418,2.1502689851522443,0.7576392292976379,0.3940033912658691,-0.1068280190229415,jumping
1761226582333474300,-1.712092379681766,1.1367460223585366,2.7503613689363,0.4702576398849487,0.3341803550720215,-0.0941976085305213,jumping
1761226582343487200,-1.7726766122430562,0.9864864873081444,3.2654005570739506,0.2817623019218445,0.3340181708335876,-0.140109971165657,jumping
1761226582353501400,-2.0086004605755208,0.8285007419198751,2.3567232856333256,0.1099686175584793,-0.0640742182731628,-0.21839240193367,jumping
1761226582363514400,-1.2618076955273747,0.4741670795232057,1.7443337303340434,-0.0712927877902984,-0.6977661848068237,-0.2945961058139801,jumping
1761226582373528300,0.1247514016432687,0.3512497249066829,1.8025515260249376,-0.2115347683429718,-1.261072874069214,-0.3481133282184601,jumping
1761226582383541200,0.7624520334076136,0.3167459822803735,1.1050187587082383,-0.2904114723205566,-1.611470103263855,-0.3732253313064575,jumping
1761226582393554400,0.4203277546448632,0.2623749251455068,0.8723357919931412,-0.3143772482872009,-1.6374377012252808,-0.3701310157775879,jumping
1761226582403568400,-0.0435325325958896,0.278079859277606,0.8594494224131107,-0.2736066579818725,-1.368186593055725,-0.3811927139759063,jumping
1761226582413581300,-0.135483269203687,0.2443698973774909,0.639631782490015,-0.1658696234226226,-1.0673667192459106,-0.4440495073795318,jumping
1761226582423594200,0.0255588269813219,-0.1527273864686489,0.590016979971528,-0.0033286514226347,-0.8226508498191833,-0.5656352639198303,jumping
1761226582433608200,0.0672605456871679,-0.8262082470685244,0.468189174157381,0.0036846862640231,-0.7604300379753113,-0.7646809816360474,jumping
1761226582443621400,-0.1275169025675393,-1.0028934322297574,0.8641659295409917,-0.2750294804573059,-0.8351823091506958,-0.959282159805298,jumping
1761226582453635300,-0.3844852742280811,-0.3691881171792745,2.13817288916707,-0.7196889519691467,-0.9526753425598145,-1.105901837348938,jumping
1761226582463648300,-0.6523088932335377,0.5982856266230344,3.207217248174548,-1.0957893133163452,-0.970487892627716,-1.2253105640411377,jumping
1761226582473661400,-1.0968930276587603,1.0837854165434837,3.542322478488088,-1.3335708379745483,-1.0272732973098757,-1.2307016849517822,jumping
1761226582483675100,-1.0214413347028195,1.339549983638525,3.3185090469270944,-1.537637710571289,-0.938692033290863,-1.3436626195907593,jumping
1761226582493688300,-1.105796757343411,0.9404249933570624,2.6029917101085185,-1.51567804813385,-0.8141692876815796,-1.5550686120986938,jumping
1761226582503701500,-1.7468679249867796,0.3387555695146322,1.6807418403893708,-1.4236115217208862,-0.5957037806510925,-1.8582415580749512,jumping
1761226582513715200,-2.250415412773192,0.7270563834428787,1.4326280803084372,-1.4030370712280271,-0.382940262556076,-2.1216535568237305,jumping
1761226582523728400,-1.943995448065549,1.2286948227375745,1.6977333072006702,-1.5263872146606443,-0.2724859416484833,-2.1446235179901123,jumping
1761226582533742300,-0.328984263215214,1.4536644385963675,1.9207646484732628,-1.5714956521987915,-0.2932719886302948,-1.6829676628112793,jumping
1761226582543755300,3.2157597433313727,0.4413701408147811,0.2600175483644008,-1.2809621095657349,-0.2956384718418121,-0.8190049529075623,jumping
1761226582553768400,6.498349043354391,-1.4583528886735435,-2.726024800059199,-0.8759012222290039,-0.2674711942672729,0.1805923730134964,jumping
1761226582563782400,8.2140464617908,-2.4354607222616678,-4.174576425686478,-0.5592879056930542,-0.3256633877754211,0.9660089015960692,jumping
1761226582573795300,7.282583942568301,-1.6471850232243537,-3.855922563958168,-0.4376257658004761,-0.408614307641983,1.311385154724121,jumping
1761226582583809300,2.8610391274437306,0.4923877958685159,-1.883933924204111,-0.4058524072170257,-0.233987346291542,1.365054726600647,jumping
1761226582593822200,-0.3589321691680699,1.2487737341701983,-1.204331365853548,-0.4169610738754272,0.1223236322402954,1.3177276849746704,jumping
1761226582603835400,-1.559474152676016,1.227311843946576,-1.4926175618469717,-0.4749931991100311,0.5200648903846741,1.2549763917922974,jumping
1761226582613849300,-1.869418345987052,0.9958622184187174,-1.5934931805253028,-0.5589778423309326,0.901738941669464,1.2420891523361206,jumping
1761226582623862300,-1.275378540240228,0.761273125821352,-1.8046014442920684,-0.7360532879829407,1.01678729057312,1.2717854976654053,jumping
1761226582633875500,-0.2617243522822857,0.480973836928606,-1.5560685820162294,-0.9028469324111938,0.7842839360237122,1.239690184593201,jumping
1761226582643889400,0.0866942225853912,-0.4284633129686117,-0.3468506131649017,-0.8456190824508667,0.625210702419281,1.1566081047058103,jumping
1761226582653902300,-0.5200663686499,-1.2933733388751745,-0.7615460975438356,-0.642845094203949,0.5288164615631104,1.0402169227600098,jumping
1761226582663916300,-0.904332885560766,-1.3498422450721264,-1.022998647147417,-0.4418523907661438,0.3848704993724823,0.8948463797569275,jumping
1761226582673929500,-0.8376071545697749,-1.001674704089761,-0.6576461626082658,-0.2682137489318847,0.1695840656757354,0.7578076124191284,jumping
1761226582683942400,-0.5389884747302159,-0.4656394896745681,-0.3971124814152717,-0.0782459452748298,-0.1349249631166458,0.6531331539154053,jumping
1761226582693956400,-0.0690011148773366,-0.0422901587188243,-0.4632411963611841,0.1213607341051101,-0.4965401589870453,0.5987761616706848,jumping
1761226582703969300,0.1015280364387668,0.0870206963270902,-0.6286784267991781,0.3188695311546325,-0.8220754265785217,0.5975356698036194,jumping
1761226582713982500,0.198043706341926,-0.004061842611432,-0.8224187916576862,0.4880529046058655,-0.96198970079422,0.6253341436386108,jumping
1761226582723996400,0.2565534159177914,-0.1436345639526844,-1.4014333160996435,0.5736700296401978,-0.9290543794631958,0.6468871235847473,jumping
1761226582734009300,0.2984961494384333,-0.1200496902257204,-1.5686036539405583,0.5619487166404724,-0.8628664016723633,0.6172652840614319,jumping
1761226582744023300,0.0746094699781388,0.0477881716132164,-0.8768132296681403,0.5132179260253906,-0.7616710662841797,0.5395739674568176,jumping
1761226582754036500,-0.3183291963512077,0.0995604444265365,-0.1495844122678041,0.3879885077476501,-0.3965291976928711,0.4092112481594085,jumping
1761226582764049400,-0.6013234599489719,0.047689971935749,-0.1663666202425956,0.2891958951950073,0.255183070898056,0.2340389043092727,jumping
1761226582774063400,-0.945112274390459,-0.0375473481059074,-1.0861971538603306,0.3634941875934601,0.4738965630531311,0.1069017797708511,jumping
1761226582784076500,-0.9175240102410316,-0.0616769962340593,-0.6219207692325115,0.4185904562473297,0.4543417692184448,0.073374718427658,jumping
1761226582794089200,-0.3180153811616822,-0.0648316608726978,-0.235498024135828,0.5156505107879639,0.1317688971757888,0.0822530537843704,jumping
1761226582804103400,0.16264248515293,-0.186235688316822,-0.1116898581594228,0.6220586895942688,-0.2085135728120803,0.0361595898866653,jumping
1761226582814116400,0.2392961377771571,-0.4343266520440578,-0.0269885446906089,0.6979256868362427,-0.4409914314746856,-0.048510480672121,jumping
1761226582824129300,-0.0279205648437142,-0.5328799652546644,0.1191851823508739,0.7673314213752747,-0.5610504746437073,-0.1145507469773292,jumping
1761226582834143500,-0.2610596778284758,-0.3282645706385373,0.288645092433691,0.8193826079368591,-0.1403442323207855,-0.0709094926714897,jumping
1761226582844156200,-0.3969190777350216,-0.0416477691620588,-0.3194932351619005,0.8963897228240967,0.4103167951107025,0.0941955745220184,jumping
1761226582854170400,-0.2468588646490126,0.6749655461996793,-3.6476825491040943,0.9421218633651732,0.0615733414888381,0.2040194272994995,jumping
1761226582864183600,0.2592871882632374,0.6368453666418791,0.5439940644651651,0.9290473461151124,-0.2759695649147033,0.2644348442554474,jumping
1761226582874196200,0.6359334394287318,0.1923345897138118,1.0906745915353298,0.841808557510376,-0.4919672310352325,0.2570721507072449,jumping
1761226582884210400,0.7249748279284686,-0.2720569457262754,1.071811485633254,0.7229767441749573,-0.6231209635734558,0.2071155160665512,jumping
1761226582894223400,0.1536207551117986,-0.3808282860904932,1.2330144395023583,0.6163334846496582,-0.6416472792625427,0.1377094686031341,jumping
1761226582904236300,-0.3342084276042878,-0.3648439504951238,1.1072019479662178,0.5237497687339783,-0.5893909931182861,0.0618139058351516,jumping
1761226582914250500,-0.4412351893234997,-0.4100345068305731,0.7555132471203804,0.4547472894191742,-0.5230098366737366,-0.0049570500850677,jumping
1761226582924263200,-0.4915824708350002,-0.5206424149721861,0.5207721788316965,0.408397912979126,-0.4574318528175354,-0.0675344094634056,jumping
1761226582934277400,-0.5112900647372007,-0.5220838459521532,0.370287602853775,0.3683154881000519,-0.3993005156517029,-0.0996690765023231,jumping
1761226582944290300,-0.5159541840907186,-0.3894704422295093,0.2727460970342159,0.3219029903411865,-0.3217388689517975,-0.1219304352998733,jumping
1761226582954303200,-0.4990752377431839,-0.2334936985760927,0.1735053860813379,0.2676467597484588,-0.2274214476346969,-0.1004025265574455,jumping
1761226582964317400,-0.4108958729002624,-0.078063482889533,0.1578676719665527,0.2528406381607055,-0.0784503445029258,-0.1026832535862922,jumping
1761226582974330400,-0.441597081438452,-0.1381301213175058,-0.0486275450468063,0.2345335334539413,0.1028356626629829,-0.1531636118888855,jumping
1761226582984343300,-0.6191103149216621,-0.2853273461878299,-0.1168582007080316,0.2002978026866912,0.2248140275478363,-0.2046081721782684,jumping
1761226582994357200,-0.7014997712515294,-0.1366629713743925,0.0809410841524601,0.1709942370653152,0.2607989609241485,-0.2494485676288604,jumping
1761226583004370400,-0.5968697684757411,0.0221662391006946,0.3200409321725368,0.1509590148925781,0.2450647354125976,-0.2633982002735138,jumping
1761226583014384400,-0.3010935089878738,0.0135679221034049,0.5159621482014656,0.1461725234985351,0.2181731015443802,-0.2632337510585785,jumping
1761226583024397300,-0.0916295052967965,-0.043169279640913,0.558283871102333,0.1204788759350776,0.1653706133365631,-0.2692812383174896,jumping
1761226583034410200,0.0519938796747475,-0.0266553672134876,0.7165899344861507,0.1154731288552284,0.0204702168703079,-0.2912594974040985,jumping
1761226583044424200,0.0495557658076286,0.0716331575810909,0.9189549198269844,0.1327109783887863,-0.1594492197036743,-0.3224355280399322,jumping
1761226583054437400,0.088079046273604,0.051826633349061,0.9480278695762157,0.1554673910140991,-0.3696996867656708,-0.3334444463253021,jumping
1761226583064450300,0.3385514983098954,0.0240992529898881,0.8569786483854055,0.1638448983430862,-0.6144554018974304,-0.3146372139453888,jumping
1761226583074464300,0.3970621394675225,0.1538444077998399,1.0497732568264009,0.1553639769554138,-0.7670777440071106,-0.2825611233711242,jumping
1761226583084477400,0.4038138056848198,0.2641530407339334,1.0272469522416592,0.1318573206663131,-0.7991712093353271,-0.2400557249784469,jumping
1761226583094491100,0.4066656149193644,0.3403489761859178,0.6574497632533312,0.1134083569049835,-0.7424359917640686,-0.2036364078521728,jumping
1761226583104504300,0.2522209762040525,0.4147761483997106,0.3381266239613294,0.0907722860574722,-0.6220073103904724,-0.1818104684352874,jumping
1761226583114517500,-0.0677609923228621,0.4225350919634103,0.0335620778620243,0.0683251246809959,-0.4098053872585296,-0.1856191456317901,jumping
1761226583124531200,-0.4511071064531803,0.427936658746004,-0.2237625781565904,0.0281292404979467,-0.1420468986034393,-0.1906274855136871,jumping
1761226583134544400,-0.5759001918137073,0.4379062640964984,-0.252656079685688,-0.048774778842926,0.077657826244831,-0.1957824975252151,jumping
1761226583144557300,-0.4984326289907097,0.4745201307445764,0.0259305600702762,-0.1208551004528999,0.2219510972499847,-0.2043437659740448,jumping
1761226583154571300,-0.3844120628613978,0.5026625216454267,0.1854103434085846,-0.1564476191997528,0.3081986010074615,-0.1977050453424453,jumping
1761226583164584400,-0.2870932598818093,0.5724181949168443,0.1179214460253715,-0.1642871648073196,0.3553773164749145,-0.1562369614839553,jumping
1761226583174600700,-0.057810895390436,0.6256149475753306,0.0683849694401025,-0.1467011570930481,0.3891381025314331,-0.1110027432441711,jumping
1761226583184613600,0.001089987193793,0.5670791719764471,-0.0014390928924083,-0.1207204163074493,0.3768052756786346,-0.0694105550646781,jumping
1761226583194626800,0.0365035381413996,0.483215478375554,0.0894938084423542,-0.1052098274230957,0.2728401720523834,-0.0533421859145164,jumping
1761226583204640500,0.02662292624861,0.3445809146672487,0.4860451488435268,-0.0960046127438545,0.1160540208220481,-0.0509346909821033,jumping
1761226583214653700,0.034409342341125,0.1974509098142385,0.8541127375602722,-0.0845160856842994,-0.0370142199099063,-0.0542595274746418,jumping
1761226583224667000,0.0484362602584063,0.1033235963523387,0.9366706092596052,-0.0715531483292579,-0.1341026872396469,-0.0665263161063194,jumping
1761226583234680600,0.0192802353356033,0.095818335288763,0.7712146741211414,-0.0622582696378231,-0.1876425892114639,-0.0644146800041198,jumping
1761226583244693800,0.1171923280332237,0.1073825163543224,0.6412918246567249,-0.0684216246008873,-0.23924320936203,-0.0501563809812068,jumping
1761226583254706700,0.2504971480861306,0.1515337927699089,0.6697638859033584,-0.0894034281373024,-0.2575041949748993,-0.0236544124782085,jumping
1761226583264720600,0.2836651120640337,0.247383692240715,0.6460726291924714,-0.1125305891036987,-0.2285428494215011,0.0059109353460371,jumping
1761226583274733800,0.2216352838043123,0.2940489973038435,0.5606535228431224,-0.126007080078125,-0.2120613306760788,0.0227197557687759,jumping
1761226583284747500,0.0579255347460508,0.2745253816664219,0.5148948112308979,-0.1146662682294845,-0.2018883228302002,0.0221594274044036,jumping
1761226583294760700,-0.1595706764921546,0.1898877810835838,0.383944956806302,-0.0862684473395347,-0.1748309433460235,-0.0161789897829294,jumping
1761226583304774000,-0.4873991938009858,0.0172615159243345,0.175953948277235,-0.0663655772805213,-0.1424255967140197,-0.0804695636034011,jumping
1761226583314787600,-0.7839263447213918,-0.0700865126609802,0.1729050821006298,-0.0607727654278278,-0.1102918088436126,-0.1563413292169571,jumping
1761226583324800800,-0.8997658699061721,-0.0808621736973524,0.2581774734556675,-0.0687851533293724,-0.0618728846311569,-0.2152003943920135,jumping
1761226583334814000,-0.8354922082424163,-0.004365793994069,0.3415121747463941,-0.0968155339360237,-0.0033420212566852,-0.2465626746416092,jumping
1761226583344827600,-0.6514844251081348,0.091896193408966,0.478705891996622,-0.1528977155685424,0.0584845952689647,-0.2511201500892639,jumping
1761226583354840800,-0.4595084395736455,0.218036017203331,0.6382885511875153,-0.201819360256195,0.1138229444622993,-0.2269067019224167,jumping
1761226583364854800,-0.2874412696018815,0.3526677750110626,0.7034568966686725,-0.2184776961803436,0.159756064414978,-0.168922483921051,jumping
1761226583374867700,-0.1322046767912805,0.4311515291392803,0.590028085887432,-0.2127997577190399,0.1475918143987655,-0.1163618192076683,jumping
1761226583384881000,-0.0910744286973029,0.3209808433711528,0.4797516016572714,-0.1904398500919342,0.0624955594539642,-0.1142390146851539,jumping
1761226583394894600,-0.2928848488952964,0.095721304655075,0.4548386941969394,-0.1649538278579712,-0.028095107525587,-0.1544802337884903,jumping
1761226583404907800,-0.601303074748069,-0.0743967770755291,0.3997521822690963,-0.1145796105265617,-0.0681301429867744,-0.1993955075740814,jumping
1761226583414920700,-0.757768259505555,-0.0732417618215084,0.1122755490928888,-0.0283701680600643,-0.0499667450785636,-0.2359643131494522,jumping
1761226583424934700,-0.8143260860949755,0.0947176805704832,-0.2504723059058189,0.0659406185150146,-0.0176439601927995,-0.2390565127134323,jumping
1761226583434947800,-0.6983859500799328,0.3046814504772424,-0.4614391153752804,0.1762317270040512,-0.0042757941409945,-0.2239602357149124,jumping
1761226583444960800,-0.5874746020123363,0.4846685997933149,-0.5594266113966703,0.2818188667297363,0.0076224105432629,-0.2015460133552551,jumping
1761226583454974700,-0.5459360288457945,0.5581412477612495,-0.7272580434948206,0.344790369272232,0.0452729202806949,-0.1772001087665558,jumping
1761226583464987600,-0.378856949484907,0.3586486029863357,-0.8214613448023795,0.3601506650447845,0.0790700316429138,-0.1406761854887008,jumping
1761226583475001900,-0.0792128355877473,0.0781102446407079,-0.8154267408132553,0.3522317707538605,0.1208911091089248,-0.0901665687561035,jumping
1761226583485014800,0.193886604928784,-0.1733089867264032,-0.9641443071186542,0.3655494451522827,0.1662199795246124,-0.0319796986877918,jumping
1761226583495027700,0.3712172483867034,-0.4155874647825956,-1.2291162630200383,0.3984984159469604,0.1159547343850135,0.0441415011882782,jumping
1761226583505041700,0.559289614078775,-0.6122036773383617,-1.3768436492443084,0.4702964425086975,-0.0867861285805702,0.1320734918117523,jumping
1761226583515054600,0.6023098406378179,-0.9528957678735256,-1.5383400331020354,0.5784898996353149,-0.2896193563938141,0.1893474906682968,jumping
1761226583525067800,0.4140670502822846,-1.48668934084177,-2.1274287923127413,0.7059258818626404,-0.3507415652275085,0.1754945218563079,jumping
1761226583535081700,-0.1441652367632836,-2.160954629817605,-2.984076601308584,0.8194607496261597,-0.2330350875854492,0.1358638405799865,jumping
1761226583545094700,-0.7215672114420681,-2.7325889808803794,-3.6805028686881065,0.8497347831726074,-0.0612542852759361,0.0868680626153945,jumping
1761226583555108900,-0.8689693842999636,-3.156251031047105,-3.688951548081637,0.8264108896255493,0.049372911453247,0.1015863120555877,jumping
1761226583565121500,-0.4987509742248803,-3.3408681782513856,-3.4306285286754368,0.7814620733261108,0.1547605842351913,0.2197209447622299,jumping
1761226583575134700,0.4076711387000978,-3.417510103905201,-3.306031258147955,0.7184215188026428,0.1782281994819641,0.4166112244129181,jumping
1761226583585149000,1.493606572884321,-3.4990023921996354,-2.858474537652731,0.5814769864082336,-0.00952785089612,0.6331243515014648,jumping
1761226583595161600,2.1317861107394096,-3.831751414775848,-1.523004516804218,0.3394923508167267,-0.3268130719661712,0.8042261004447937,jumping
1761226583605174800,2.030492851170897,-4.339998458555341,-0.021844752061367,-0.0254294071346521,-0.5698214173316956,0.8623820543289185,jumping
1761226583615188500,1.128233557013795,-4.890571316888928,0.9640881930172442,-0.4771206974983215,-0.7787488698959351,0.7621368765830994,jumping
1761226583625201700,-0.3111003776088357,-5.129473011988401,1.353276895695925,-0.8716794848442078,-0.9060093760490416,0.5012158155441284,jumping
1761226583635214800,-1.72528007029593,-4.818320319670439,0.7812246114820242,-1.077220797538757,-1.1055907011032104,0.1879976838827133,jumping
1761226583645228500,-2.097826704122871,-4.310419312849641,-0.4374433227598667,-0.956491231918335,-0.990408182144165,-0.0173855610191822,jumping
1761226583655241700,-2.157153483968973,-2.3633342282056806,-2.7418004613399503,-0.6180374026298523,-0.4762270152568817,-0.105741910636425,jumping
1761226583665255700,-1.9742412409864365,-0.5429641368955374,-4.741596560952067,-0.2156151533126831,0.2821602821350097,-0.262620747089386,jumping
1761226583675268600,-2.592126617223024,0.4280301822483539,-5.015200736120343,0.0456975884735584,1.0337828397750854,-0.5677670836448669,jumping
1761226583685281800,-3.29210794673562,1.0401853442698716,-3.4280309133976696,0.0397651307284832,1.3005101680755615,-0.8968424201011658,jumping
1761226583695295700,-2.577802323794365,1.176253856882453,0.4782984802395105,-0.1277333348989486,0.8891602754592896,-1.080047845840454,jumping
1761226583705308700,-0.8469946491833775,1.413251179665327,5.356839167594909,-0.3070186674594879,-0.0241441577672958,-1.1422654390335083,jumping
1761226583715321900,1.2444333668783307,2.276973457092047,9.179030142343043,-0.348678320646286,-1.0962764024734497,-0.9180700778961182,jumping
1761226583725335600,2.640106219755113,3.5993712303996084,10.23468836555481,-0.2007314413785934,-2.0422966480255127,-0.864585280418396,jumping
1761226583735348700,2.9222713025197384,4.215887510240078,8.001575092977285,-0.0233097933232784,-2.564570903778076,-0.7409839630126953,jumping
1761226583745362000,2.342256076602637,5.37037786360383,5.676327726581692,0.2354304194450378,-2.631540298461914,-0.4306156933307647,jumping
1761226583755375600,2.3170544153288004,7.218305823925137,2.5974060189306734,0.4966550767421722,-2.274479866027832,-0.2705247402191162,jumping
1761226583765388800,0.8667429404221475,6.864684693711996,-0.0068669631600379,0.7670498490333557,-1.3422545194625854,-0.4248221516609192,jumping
1761226583775402800,-1.3411249778702854,6.505035389250517,-2.200394075280428,0.9021663069725036,-0.382811576128006,-0.5737189650535583,jumping
1761226583785415700,-2.144196825631708,6.202717745295167,-2.556376673927903,0.8360581398010254,0.1625462770462036,-0.5525737404823303,jumping
1761226583795428900,-1.3741358515903352,6.0283326537698505,-0.6099801560699939,0.7065204381942749,0.6858310103416443,-0.4703316390514374,jumping
1761226583805442800,-0.9440385076791048,6.211339443168043,0.6250520529955625,0.7377622723579407,1.1497308015823364,-0.3690593540668487,jumping
1761226583815455700,-0.483901341747865,6.243379426029324,0.5738888519912958,0.692287266254425,1.119266390800476,-0.6139939427375793,jumping
1761226583825468700,-1.7092722076945006,4.686491928845644,1.151643147239089,0.7746460437774658,0.9055874347686768,-0.675738513469696,jumping
1761226583835483000,-1.034249086088687,5.535052292975783,2.377936754053831,0.9893823266029358,0.6918298602104187,-0.6318639516830444,jumping
1761226583845495800,-0.2446536096896976,5.558733612814545,1.4059113382965325,1.2213764190673828,0.394573450088501,-0.5472556352615356,jumping
1761226583855508700,0.1113710014685988,5.575347478485107,0.8885352316439151,1.4627636671066284,0.0555485673248767,-0.5706130862236023,jumping
1761226583865522700,-0.5128508112479001,5.171984119981527,0.6758060886770486,1.733569860458374,-0.3084551990032196,-0.6628809571266174,jumping
1761226583875535600,-1.5421673363052308,4.55091324557662,0.1537403629034757,1.9768348932266235,-0.4978495836257934,-0.7451558113098145,jumping
1761226583885549800,-2.343477288960665,4.185138736233115,-0.5974392389267683,2.189073324203491,-0.5062673091888428,-0.8137450218200684,jumping
1761226583895562800,-2.784915088184177,4.182631721848249,-1.4465823713809252,2.4021570682525635,-0.4982571005821228,-0.8288060426712036,jumping
1761226583905575700,-2.7429449551999565,4.07386388861537,-2.0849270366698502,2.622277975082397,-0.5426466464996338,-0.7984587550163269,jumping
1761226583915590000,-2.608660695655644,3.727590783077478,-2.3633833280444145,2.8020527362823486,-0.5119510293006897,-0.7297911643981934,jumping
1761226583925602600,-2.863812683810293,2.9837621285319327,-2.4416052163660527,2.864067554473877,-0.2863167822360992,-0.6312214732170105,jumping
1761226583935615700,-2.432484336799383,1.7038631882578132,-2.3928832710340617,2.723635196685791,-0.1248821318149566,-0.4675508439540863,jumping
1761226583945630000,-1.6294764941848814,0.2821744351148605,-1.3285615566343068,2.531503915786743,0.4572491943836212,-0.4841476678848266,jumping
1761226583955642600,-0.9242592367801816,-1.426100724366307,-1.0511018750816583,2.197384119033813,0.9526339173316956,-0.4867879152297973,jumping
1761226583965655800,0.6454167956322431,-4.111823324653506,-1.070763437885046,1.64406418800354,0.8351587057113647,-0.3042966723442077,jumping
1761226583975669500,3.369548913812637,-6.859713919562101,0.8107499811738729,0.9591979384422302,0.3295082747936249,-0.1419993340969085,jumping
1761226583985682700,4.452817905266583,-9.242498698168992,2.5497704075306653,0.2880035936832428,-0.0710782706737518,-0.1758521050214767,jumping
1761226583995697000,3.601873276348412,-11.265179414284228,2.6212629875972864,-0.3704877197742462,-0.1229122430086135,-0.3323733806610107,jumping
1761226584005709600,2.1405100999429822,-11.348808130085468,2.118573577944934,-1.0022307634353638,0.0673679485917091,-0.3551452457904815,jumping
1761226584015722800,2.068714153015613,-10.274563279825449,1.5873896029531955,-1.596574068069458,0.5015239715576172,-0.1709745377302169,jumping
1761226584025736700,3.4102912585675718,-9.495648114329576,1.064625665782392,-2.1304845809936523,1.027374267578125,0.1382200717926025,jumping
1761226584035749600,4.99983891633749,-8.777997857135533,0.8645666192963719,-2.5175986289978027,1.3069239854812622,0.4849273264408111,jumping
1761226584045762800,6.28581629974246,-8.078327493268251,0.9312424467310308,-2.640947103500366,1.2460774183273315,0.7422102689743042,jumping
1761226584055776800,6.749432174634933,-7.568485873773693,1.1191507444351911,-2.5770905017852783,0.793100893497467,0.8539591431617737,jumping
1761226584065789700,6.0679731747627255,-6.547232024466991,2.158416928033531,-2.44182562828064,-0.0267169885337352,0.9167711734771729,jumping
1761226584075803600,5.110287834525108,-5.0787943796306845,3.5029730493962763,-2.3055200576782227,-0.9233234524726868,0.9734176397323608,jumping
1761226584085816600,4.0603152557343245,-3.330021205544472,4.076837351468205,-2.1372647285461426,-1.544636607170105,1.0105085372924805,jumping
1761226584095829800,2.3387040832094845,-1.3405068459719418,3.19456877900362,-1.89173436164856,-1.661449909210205,1.0201373100280762,jumping
1761226584105843700,0.6908353155046701,0.1398205586224794,1.4107178617954252,-1.6307834386825562,-1.405164122581482,1.023430585861206,jumping
1761226584115856600,-0.3919306948632001,1.2913216670423746,0.2372422374546527,-1.4238746166229248,-1.0186976194381714,0.9916254878044128,jumping
1761226584125869800,-1.0793592706643045,1.991166218432784,0.368790057772398,-1.2383391857147217,-0.6932430863380432,0.88858562707901,jumping
1761226584135883800,-1.3461239552013575,2.1808552620738744,1.2156547239005564,-1.055113434791565,-0.4571564197540283,0.7644703984260559,jumping
1761226584145896700,-0.9652731650181114,2.204571068704128,2.259129172843694,-0.9045321941375732,-0.3527264297008514,0.6579077243804932,jumping
1761226584155910000,-0.3307354177314788,2.612058229139447,3.429138582378626,-0.7252110242843628,-0.4135436415672302,0.5548776388168335,jumping
1761226584165923800,-0.0451217288829386,2.93214416949749,4.200893354725838,-0.4539398550987243,-0.5060914158821106,0.4617641568183899,jumping
1761226584175934200,0.511257916033268,2.750890945768356,3.722292676669359,-0.194807767868042,-0.5370428562164307,0.3739251792430877,jumping
1761226584185948200,0.566037700099498,3.6336218750476834,3.0551252369999884,-0.0619932636618614,-0.5522779822349548,0.3388787806034088,jumping
1761226584195961300,0.2481416710011661,4.741453353089094,3.2501357679247853,0.0269093532115221,-0.4479406774044037,0.2895932793617248,jumping
1761226584205974000,0.5336309297524392,4.397284526354074,3.223163589847088,0.0869303494691848,-0.2308791726827621,0.1510447114706039,jumping
1761226584215988200,0.2138470410808921,4.354475312197208,2.739505628401041,0.1779917925596237,-0.054927684366703,0.0462495274841785,jumping
1761226584226001200,0.1110537522129714,4.588198727875947,2.041104261556268,0.3429887294769287,0.0866190642118454,0.0530360601842403,jumping
1761226584236014000,0.2383671498313546,4.674278928482532,1.024449430477619,0.5972147583961487,0.2500060498714447,0.1164492964744567,jumping
1761226584246028300,0.0986921371594071,4.681691835087538,0.072125325012207,0.866625964641571,0.3834613263607025,0.1777576655149459,jumping
1761226584256041200,-0.1199536825053393,4.356089761656523,-0.3784662331342697,1.0585075616836548,0.4161568582057953,0.1949674487113952,jumping
1761226584266054100,-0.5149871656894683,3.7197125970482814,-0.268825708720088,1.159287452697754,0.3783607482910156,0.1504417806863784,jumping
1761226584276068000,-1.0429654765076934,2.907950808483362,-0.0319049583047628,1.198190689086914,0.3095678985118866,0.0444184988737106,jumping
1761226584286081300,-1.4595217863224446,2.105595730689168,0.0188169286727905,1.2078348398208618,0.2519011497497558,-0.0348057523369789,jumping
1761226584296094200,-1.580339099919796,1.7074509836167096,-0.3424398109853267,1.2329645156860352,0.126030758023262,-0.0993176996707916,jumping
1761226584306108200,-1.6514850585058332,1.736449114564061,-1.3526356751829385,1.381157636642456,0.0172366425395011,-0.0976031571626663,jumping
1761226584316121000,-1.991999746647477,1.862778907972574,-3.3791923559486863,1.7129113674163818,0.0757403746247291,-0.0778292566537857,jumping
1761226584326135000,-2.75332723300457,1.918768506219983,-5.798848775357008,2.2141900062561035,0.2944026589393616,-0.1181772053241729,jumping
1761226584336148200,-4.005665966179967,2.010603324830532,-7.743782234925031,2.803755760192871,0.5271666646003723,-0.2244171351194381,jumping
1761226584346161200,-5.081895268255471,1.631753645336628,-8.581627728295325,3.344279766082764,0.7128113508224487,-0.374854028224945,jumping
1761226584356175000,-5.6557297597110265,0.9350818787634372,-8.483740185517073,3.8209969997406006,0.6191211342811584,-0.5961483120918274,jumping
1761226584366188300,-5.914131689572334,0.1412421158581972,-7.659961795943975,4.165201663970947,0.0953018441796302,-0.9315811395645142,jumping
1761226584376201200,-5.882080016273259,-1.577953666087985,-5.558514417105913,4.352412700653076,-0.5706887245178223,-1.350231409072876,jumping
1761226584386215200,-5.556209647294879,-3.5563287920087574,-3.6438963085636495,4.3219828605651855,-0.6256340146064758,-1.7420793771743774,jumping
1761226584396228400,-4.657883673998713,-5.683929433757067,-3.836617851768434,4.049255847930908,0.1636143028736114,-1.8474297523498533,jumping
1761226584406241300,-2.4328227749735114,-7.105380871012806,-4.27435080512464,3.3976283073425293,0.8720585703849792,-1.6394853591918943,jumping
1761226584416255200,0.2489705230407416,-7.765833907735347,-1.5308189899474385,2.400346040725708,0.999179482460022,-1.3497413396835327,jumping
1761226584426268200,2.6643349443435667,-8.925286267420649,2.4336308764860037,1.3534854650497437,1.0877703428268433,-1.0796558856964111,jumping
1761226584436282000,4.4354377313986415,-10.822531508618592,3.913607275685668,0.4252282083034515,1.2516355514526367,-0.7484546303749084,jumping
1761226584446295300,4.815976386892795,-10.37526821811199,3.748075937223434,-0.3214334547519684,1.0288286209106443,-0.4018612802028656,jumping
1761226584456308200,4.539958720842003,-8.59643016062975,3.9659795602187513,-0.669547438621521,0.565409243106842,-0.128162607550621,jumping
1761226584466322200,4.079461562491953,-7.954000271853804,3.513042607989907,-0.6331689357757568,0.0887369662523269,0.0668401643633842,jumping
1761226584476335400,3.582407820639014,-7.534656084886193,1.6684689265325665,-0.3735158443450928,-0.3421812057495117,0.2844214141368866,jumping
1761226584486348000,3.3327626132071018,-6.5194087825179095,0.5139345878966153,-0.022866990417242,-0.6376922130584717,0.5642352104187012,jumping
1761226584496362200,3.4488016064867377,-4.937724697729945,-0.1721440346002578,0.2089467942714691,-0.8234806656837463,0.8150928616523743,jumping
1761226584506375400,2.815978627228737,-2.938870847404003,0.5200497097760438,0.2072295844554901,-0.8981570601463318,0.9386240839958192,jumping
1761226584516388000,1.6997845406420529,-1.642601787087321,2.0753334250248967,-0.1131766438484191,-0.8377262949943542,0.8842397928237915,jumping
1761226584526402300,0.2964503593571484,-0.813461578220129,3.966412398678064,-0.7153253555297852,-0.5604968070983887,0.694049060344696,jumping
1761226584536415000,-0.9496529865600168,0.1205775134921073,5.4083963363528245,-1.3982665538787842,-0.1644166409969329,0.386112779378891,jumping
1761226584546429200,-2.392292027142644,1.2966273722350596,6.053130994939804,-2.021235704421997,0.1824526339769363,0.1908796280622482,jumping
1761226584556442400,-1.4577993464440109,4.149443153473735,5.51461682319045,-2.5921881198883057,0.3739899098873138,0.0654647946357727,jumping
1761226584566455000,-1.515034999229759,5.96525923474133,5.274914917623996,-2.747120141983032,0.713225781917572,-0.0372733026742935,jumping
1761226584576469200,-1.2999338664345443,6.78843615128994,2.968853313213587,-2.616706132888794,0.9969482421875,-0.1014459505677223,jumping
1761226584586482200,-1.1566647747933865,8.14255943468213,0.6059530925109982,-2.255934953689575,1.0269691944122314,-0.1546726822853088,jumping
1761226584596495000,-1.290017014184594,9.097459528115392,-0.1990197665661573,-1.730846643447876,0.9033000469207764,-0.2259881496429443,jumping
1761226584606509300,-1.0795862112879753,9.237868115758896,-0.6959826152652502,-1.1530488729476929,0.6317369937896729,-0.2762347757816314,jumping
1761226584616522200,-0.5973257320823148,9.24145883372724,-0.4347159436225891,-0.6042912602424622,0.1762230396270752,-0.2092221528291702,jumping
1761226584626535200,0.4808942323537543,9.439739764624834,0.5372860912591219,-0.1695009022951126,-0.3885186612606048,-0.0809374302625656,jumping
1761226584636549000,1.7023621360450982,9.409666697922349,1.928382722261548,0.1551209390163421,-0.8895887136459351,0.0046666776761412,jumping
1761226584646562000,1.8732063400931656,9.184809310266376,3.03908303373754,0.362953245639801,-1.2467100620269775,0.0711170732975006,jumping
1761226584656576300,1.6604038396291434,9.034203738257288,3.556227377460897,0.4336131811141968,-1.3759715557098389,0.1650619953870773,jumping
1761226584666589200,1.6545029450222848,9.015828123611213,3.770601365025341,0.3621629774570465,-1.2649505138397217,0.2770149111747741,jumping
1761226584676602000,1.5380935109950602,9.153101920360326,3.894854644420743,0.1679389476776123,-1.0138423442840576,0.329901248216629,jumping
1761226584686616000,0.9785847742728888,8.997775749570131,4.076527262605726,-0.0766524299979209,-0.6602603793144226,0.3066284358501434,jumping
1761226584696629200,0.2203562768444418,8.477859895306825,4.016813967660069,-0.3410634398460388,-0.2796949446201324,0.2320964038372039,jumping
1761226584706642200,-0.2872949929989874,7.825632835137844,3.8327915714785457,-0.6022002100944519,0.045732419937849,0.1045269891619682,jumping
1761226584716656000,-0.7531230640482157,7.384723297572135,3.790928698261082,-0.7928441762924194,0.2543249726295471,-0.0966685190796852,jumping
1761226584726669300,-1.3424991888329385,6.763297033858299,3.635471302306652,-0.9006001949310303,0.3497244417667389,-0.3327028751373291,jumping
1761226584736682200,-1.5916890537127852,6.047539458543062,3.154995770289004,-0.916353702545166,0.3286952078342438,-0.523356020450592,jumping
1761226584746696200,-1.1783159039787947,5.602501442870498,2.638490893512964,-0.8582536578178406,0.284738689661026,-0.6404320597648621,jumping
1761226584756709000,-0.7499141119390725,5.6293315821290015,2.00426652302444,-0.7143546342849731,0.2450349032878875,-0.6908338069915771,jumping
1761226584766722300,-0.6279616568319499,5.813694462311267,1.011674120056629,-0.4753513932228088,0.1845779418945312,-0.7008842825889587,jumping
1761226584776736300,-0.5861067111926153,5.724163828989863,-0.1478852071344852,-0.1119010895490646,0.1111471801996231,-0.6872086524963379,jumping
1761226584786749200,-0.7014626541115343,5.366676670998334,-1.5960244525685905,0.3680135905742645,0.0383320972323417,-0.6894355416297913,jumping
1761226584796763100,-1.193623436291143,4.659374789339304,-3.0179288942888376,0.9288941621780396,0.1169289499521255,-0.7178700566291809,jumping
1761226584806776300,-1.8770473795607685,3.701162794879079,-4.504485840922594,1.500981330871582,0.4049924314022064,-0.8286381363868713,jumping
1761226584816789200,-2.6867291469812398,2.228351757264137,-5.617333685821294,2.012258052825928,0.6698424220085144,-1.039289951324463,jumping
1761226584826803200,-3.0668790954187517,-0.1091565402895212,-5.612636467915773,2.377322196960449,0.6537918448448181,-1.2410836219787598,jumping
1761226584836816400,-2.1397128120854494,-3.387119057294726,-4.136925617206097,2.456981658935547,0.3540531396865845,-1.3861695528030396,jumping
1761226584846829000,0.1539613121777772,-7.738350857526063,-1.9963810304716227,2.2122814655303955,-0.1422958672046661,-1.495595932006836,jumping
1761226584856843300,3.529893205025792,-12.96615564892888,0.1815355478018522,1.6343432664871216,-0.6098878383636475,-1.3457661867141724,jumping
1761226584866856200,7.628294738048314,-16.92022995955944,1.756917902097106,0.7453092336654663,-0.9731778502464294,-0.8249341249465942,jumping
1761226584876869000,11.032773510944844,-18.59592094630003,2.539314479967952,-0.3250173330307007,-1.300310492515564,-0.1294741630554199,jumping
1761226584886883300,11.289393818086385,-19.53493198120594,2.1729180393338203,-1.3682582378387451,-1.2249784469604492,0.3915919363498688,jumping
1761226584896896000,7.67606478948295,-18.523800297462937,0.4399591049730778,-1.974674224853516,-0.6165590882301331,0.6143384575843811,jumping
1761226584906909200,2.6298139583215114,-16.935415838253498,-5.222936893105507,-2.023872375488281,0.1487322002649307,0.643486499786377,jumping
1761226584916923400,-1.341379537153244,-15.63820511317253,-9.27282603189349,-1.6347858905792236,0.9162133932113647,0.6171731352806091,jumping
1761226584926936000,-2.65770880420208,-14.418988312876223,-12.672016050732134,-0.9627644419670104,1.3823922872543335,0.6549335718154907,jumping
1761226584936950300,-1.9602521708615124,-13.12300157663226,-13.580578171360491,-0.2013911008834839,1.4921696186065674,0.851578950881958,jumping
1761226584946963200,0.0549633787385188,-11.84017242812514,-12.148017895591256,0.4814468920230865,1.2885478734970093,1.184816837310791,jumping
1761226584956976000,2.0437001232683656,-10.330095197433232,-9.144773067954182,0.9719940423965454,0.8405823111534119,1.5145998001098633,jumping
1761226584966990300,2.868679120802879,-8.99320712648034,-5.05383061876595,1.2480000257492063,0.3211633265018463,1.685795545578003,jumping
1761226584977003300,2.263491459706425,-8.042868057352305,-1.2225424375876783,1.2862988710403442,-0.1956241428852081,1.631017804145813,jumping
1761226584987016200,0.925690073300898,-7.12217769203484,2.327894958294928,1.0586212873458862,-0.6011753678321838,1.3770766258239746,jumping
1761226584997030100,-0.4243280032621696,-5.756635773527622,5.380179126650095,0.6018781661987305,-0.7547727823257446,1.0342559814453125,jumping
1761226585007043000,-1.5245989463888108,-3.5654449954003096,7.203935937789082,0.0481718555092811,-0.6004420518875122,0.6865845322608948,jumping
1761226585017056300,-2.5974869752123952,-0.8794897554010153,7.448644857862591,-0.4904661178588867,-0.2420433610677719,0.3056623041629791,jumping
1761226585027070200,-3.724823656451702,1.4499778590381145,6.686051297092438,-0.9686886072158812,0.2253392785787582,-0.0799392014741897,jumping
1761226585037083100,-4.406589530315995,3.4458600000768898,5.88017739752233,-1.277347445487976,0.7837401032447815,-0.4111127257347107,jumping
1761226585047096300,-4.104815783978999,4.985447987413406,4.527437677443027,-1.35380756855011,1.4357032775878906,-0.6068729162216187,jumping
1761226585057110300,-3.1464205419063567,6.139602240690588,3.338541196608543,-1.2578665018081665,1.9979749917984009,-0.6229584813117981,jumping
1761226585067123200,-1.9179962066732343,7.608734882053732,2.55489081928432,-1.097325086593628,2.096036672592163,-0.5966960191726685,jumping
1761226585077137200,-1.0565459658317269,8.51046978701055,3.377006828603148,-0.8857611417770386,1.7506641149520874,-0.6173394918441772,jumping
1761226585087150300,-0.702425653924793,8.583533269655703,4.797456687600911,-0.6451514959335327,1.1982115507125854,-0.6563540101051331,jumping
1761226585097163300,-0.275802543729078,8.521364105990529,5.605881148436665,-0.4592174887657165,0.5966650247573853,-0.6219975352287292,jumping
1761226585107177200,0.3964143430832773,8.835325425988435,6.106593705058097,-0.313862144947052,0.1176254823803901,-0.5227657556533813,jumping
1761226585117190100,0.7187048808135091,9.179525816905498,6.126856156364083,-0.2238344252109527,-0.2083122581243515,-0.3870676755905151,jumping
1761226585127203300,0.5928123097784816,9.758360308605432,5.705123612955212,-0.1910671591758728,-0.267803281545639,-0.322966992855072,jumping
1761226585137217300,-0.1861545128393918,10.1281779558599,4.794636661744118,-0.1444218009710312,-0.1365001648664474,-0.203694462776184,jumping
1761226585147230200,-0.6320860432855785,10.278639735484123,3.549163722684979,-0.0658923685550689,0.0280064903199672,-0.1094273328781127,jumping
1761226585157243100,-0.7264557872012257,10.224152943015095,2.955464839330316,0.0096146231517195,0.148742601275444,-0.0955249816179275,jumping
1761226585167257300,-1.1212201711203902,9.902387671267986,2.924949289557337,0.0348363555967807,0.174787238240242,-0.113915704190731,jumping
1761226585177270000,-1.178854540900141,9.655478610801696,3.1295722829580304,-0.001449836185202,0.0932564511895179,-0.1404570341110229,jumping
1761226585187283000,-1.2070170978061854,9.46807270966172,3.561483106032014,-0.0530243441462516,0.0552062690258026,-0.1946166753768921,jumping
1761226585197297000,-1.22417603013888,9.221866244506836,3.3358220007777213,-0.0785577520728111,0.0385763645172119,-0.2363529950380325,jumping
1761226585207310000,-1.156247353098914,9.035817018672825,2.647289701518416,-0.0500422194600105,0.0363398417830467,-0.2123861461877823,jumping
1761226585217324000,-0.889044642470777,8.918053393557667,1.983150377498567,0.0038773035630583,0.0976561158895492,-0.1679074466228485,jumping
1761226585227337000,-0.645424394416809,8.759202555772662,1.405293790920079,0.0634428933262825,0.1914902031421661,-0.1679540574550628,jumping
1761226585237350000,-0.788774296209216,8.457529054939746,1.1213771883130073,0.1156184747815132,0.1995114386081695,-0.1755980402231216,jumping
1761226585247364000,-0.9179546567432582,7.874871205559373,1.1400652299091218,0.1856015622615814,0.0811587050557136,-0.166580319404602,jumping
1761226585257377000,-0.7018084718745201,7.196825813522935,1.0475544117331503,0.3192556500434875,-0.1574215590953827,-0.1485399752855301,jumping
1761226585267390000,-0.686465722118318,6.399049295690656,0.2682330035239458,0.576023519039154,-0.33795166015625,-0.1225528493523597,jumping
1761226585277404000,-0.7483617679305374,5.218792048385739,-1.1635521962195634,0.880592405796051,-0.4719569385051727,-0.1663185060024261,jumping
1761226585287416800,-1.0448774476088585,3.806072783640027,-2.3258345186337825,1.105709433555603,-0.5718464851379395,-0.3238383531570434,jumping
1761226585297430000,-1.700718606621772,2.0557710848122834,-2.4478379732757807,1.1833735704421997,-0.4789702892303467,-0.4983240365982055,jumping
1761226585307444000,-1.9031920207731423,0.1829635347783565,-2.3216595710366965,1.071811556816101,-0.2070242464542389,-0.5919373631477356,jumping
1761226585317457000,-0.8702908421620726,-1.9654227053672075,-2.256506130863726,0.8433902859687805,0.2356776595115661,-0.6101943254470825,jumping
1761226585327469800,0.6661262600533664,-4.521836204174161,-2.473462243875861,0.5377930402755737,0.7911472320556641,-0.5829041004180908,jumping
1761226585337483800,2.11064541529417,-6.917559374809264,-2.527056179158389,0.0447104908525943,1.0410045385360718,-0.6189132928848267,jumping
1761226585347497000,3.151203100007772,-9.156181181675196,-1.0837778177589177,-0.6266713738441467,0.8593502640724182,-0.7535991668701172,jumping
1761226585357511200,3.674750296510756,-11.26198792476654,0.9099111971497535,-1.2489429712295532,0.39695805311203,-0.7705004215240479,jumping
1761226585367523800,4.7694794241338965,-12.593110271799564,1.1687895123511551,-1.6489635705947876,-0.0903450325131416,-0.5117107033729553,jumping
1761226585377537000,5.919964633509516,-12.256191854584216,-0.845291425462067,-1.758328199386597,-0.4360040426254272,-0.0526663325726985,jumping
1761226585387550700,5.8145297440916295,-10.336930596411229,-3.9559342592835423,-1.4687347412109375,-0.533817708492279,0.4700394868850708,jumping
1761226585397564000,4.614930667456984,-8.89755304184258,-7.792456541723013,-0.7617113590240479,-0.3595907390117645,0.9422390460968018,jumping
1761226585407577000,3.017152356958389,-8.426324938380718,-11.78773380035758,0.1289618015289306,-0.1910973191261291,1.210392713546753,jumping
1761226585417590800,1.1887691281277686,-8.571730603659152,-13.51771401116848,0.895414412021637,-0.252756655216217,1.2211953401565552,jumping
1761226585427604000,-0.4823911563806236,-9.152935331621766,-11.881381221348049,1.3475244045257568,-0.446617990732193,1.119597315788269,jumping
1761226585437617000,-0.6134089614748954,-9.837059166789054,-8.276419623595476,1.4359362125396729,-0.8077248930931091,1.042578101158142,jumping
1761226585447630800,0.4611457584518939,-10.06933647531271,-3.710009533679485,1.1991556882858276,-1.1910024881362915,1.0355582237243652,jumping
1761226585457644000,1.5132240042850371,-9.3063039386034,0.561421000084281,0.6799144744873047,-1.3679317235946655,1.0439094305038452,jumping
1761226585467657000,1.7337810643985867,-7.5386746728777885,3.544590715681016,-0.0530404895544052,-1.3139876127243042,1.0320730209350586,jumping
1761226585477671000,1.428469791585207,-5.074183670964837,5.383064326697587,-0.8883746862411499,-1.0800246000289917,1.0383687019348145,jumping
1761226585487684000,0.9087904494915156,-2.31109726049006,6.1644707244873045,-1.706084132194519,-0.7143781781196594,1.104464054107666,jumping
1761226585497696800,0.5728581572366878,0.3900876973450183,5.824574168244004,-2.3761000633239746,-0.1239511892199516,1.1875306367874146,jumping
1761226585507711000,0.1744191764580085,2.5004887824893,4.4742517384395,-2.790637969970703,0.5026112198829651,1.237323760986328,jumping
1761226585517724200,-0.3931998745488003,4.179778670504689,2.9989132281735538,-2.890995979309082,0.7807096838951111,1.207099437713623,jumping
1761226585527737900,-1.1787081181667745,5.291959575927257,2.136648456078768,-2.623910903930664,0.7156228423118591,1.0597341060638428,jumping
1761226585537751000,-1.8922317969501017,5.364494066262245,1.252381403273344,-2.0851640701293945,0.4152900576591491,0.7648735642433167,jumping
1761226585547763700,-2.5610043337285515,4.745532731357216,0.5811579662114381,-1.4522628784179688,-0.0132005661725997,0.3585084974765777,jumping
1761226585557778000,-3.2209687101513147,4.2678924227654935,0.4327618869453668,-0.8990351557731628,-0.4284723103046417,-0.0005364601965993,jumping
1761226585567791000,-2.796485698990524,4.253455316612124,0.7870113781899213,-0.5621058940887451,-0.6896998882293701,-0.1916496902704239,jumping
1761226585577803800,-1.4106938963979485,4.855363809907436,1.6748030979901551,-0.4500118196010589,-0.7119910717010498,-0.2295763045549392,jumping
1761226585587818000,-0.1556250806715339,5.615964151033759,2.572594233757257,-0.5206276774406433,-0.510755717754364,-0.1641568094491958,jumping
1761226585597831000,0.7002121425937861,6.237881413134932,3.2197721938431263,-0.6942122578620911,-0.2531093657016754,-0.0644995719194412,jumping
1761226585607843800,1.1382784195575864,6.513881543529033,3.679287647679448,-0.8867979645729065,-0.058992613106966,0.0303329322487115,jumping
1761226585617858000,1.0919568864308298,6.324931920078396,3.8391146370202303,-1.0090739727020264,0.0696983486413955,0.0878242924809455,jumping
1761226585627871000,0.9555369300320744,5.815099068412184,3.52777080604434,-1.04652202129364,0.1115872114896774,0.0773298367857933,jumping
1761226585637884000,0.505772031968087,5.275737339922785,3.043976066476106,-0.9908124208450316,0.0889942049980163,0.0010368560906499,jumping
1761226585647897900,-0.2047038766171783,4.888642394652963,2.4290146148622034,-0.839781641960144,0.1167483478784561,-0.0813813209533691,jumping
1761226585657910800,-0.5368082446143031,4.62754698792398,1.5698253046900033,-0.6419258117675781,0.1700333952903747,-0.1690198332071304,jumping
1761226585667924000,-0.665255541633442,4.579447266143561,1.0370891318202018,-0.4400680959224701,0.2165140807628631,-0.2587340176105499,jumping
1761226585677938000,-0.7905779846303165,4.609335623928904,1.0348796390771866,-0.2692604959011078,0.2648901045322418,-0.3524520099163055,jumping
1761226585687950800,-0.8174795816898346,4.656262794798613,1.24806178650856,-0.1343378275632858,0.271860122680664,-0.4665578007698059,jumping
1761226585697964000,-0.834705368713662,4.54936426256895,1.78356099435091,-0.0352497808635234,0.1961375176906585,-0.5580196976661682,jumping
1761226585707978000,-0.5693597937269136,4.454834213525056,2.344920619636774,0.0756383836269378,-0.0005864691920578,-0.5633958578109741,jumping
1761226585717991000,-0.0409798433052375,4.360592918294668,2.568390936848521,0.1969103813171386,-0.1883637756109237,-0.4819214046001434,jumping
1761226585728004900,0.1920645406007766,3.9866269191890953,2.147213104712963,0.2856895327568054,-0.2142899185419082,-0.3723901212215423,jumping
1761226585738018000,0.0887180382968857,3.3903520478665827,1.2781798613965512,0.3189254403114319,-0.1334928125143051,-0.3311178386211395,jumping
1761226585748031000,-0.4740290958246216,2.7042390847086906,0.5633937614619732,0.3458305597305298,-0.1034867092967033,-0.3651368021965027,jumping
1761226585758045000,-1.033184671727568,2.0186521912515163,-0.1155611466348171,0.4474620223045349,-0.0919202491641044,-0.4518385529518127,jumping
1761226585768057900,-1.5937619144640862,1.238798868122697,-1.2804115659713744,0.6735716462135315,-0.0459500923752784,-0.550442099571228,jumping
1761226585778071000,-1.8959147232465443,0.3026590047389269,-3.020235709926486,1.019680142402649,-0.1109167635440826,-0.6243716478347778,jumping
1761226585788085000,-1.9510279770508407,-0.7453098330140113,-5.012033212000131,1.4828296899795532,-0.0770022049546241,-0.6945483088493347,jumping
1761226585798098000,-2.357626664213836,-2.195342637109756,-7.3604779141098255,2.0658507347106934,0.2844651937484741,-0.8209182620048523,jumping
1761226585808110800,-3.053324617318809,-3.951820978745818,-9.682546065947411,2.558742046356201,0.8888967633247375,-0.9867706298828124,jumping
1761226585818125000,-3.177448425115645,-5.927947448956966,-10.676010575574637,2.675525188446045,1.2086576223373413,-1.1511038541793823,jumping
1761226585828138000,-2.021258135966212,-8.439253393536806,-8.671005801403522,2.2508749961853027,0.9329531788825988,-1.3039623498916626,jumping
1761226585838151000,0.1948437595231458,-11.172066246300934,-4.569702701720595,1.4906688928604126,0.3709725141525268,-1.40901780128479,jumping
1761226585848165000,2.7377999935269357,-13.557143519759178,-1.4509090024083853,0.6977433562278748,-0.165791317820549,-1.3656657934188845,jumping
1761226585858177800,4.893571083226799,-14.940010082554815,-1.0000506100192663,-0.0926390066742897,-0.6845160126686096,-1.0918618440628052,jumping
1761226585868191000,5.74349162979424,-13.744344838237762,-1.5698773271381854,-0.7509047985076904,-0.884574830532074,-0.6452254056930542,jumping
1761226585878205000,5.2158314450144765,-11.299210278701782,-3.2770474479869005,-1.1141544580459597,-0.4822839498519897,-0.1263618469238281,jumping
1761226585888217900,4.172067657735943,-9.861725990533827,-6.733815503308176,-1.1223948001861572,0.3531515598297119,0.3913406729698181,jumping
1761226585898231000,2.963572742462158,-9.016491555956003,-10.196167203980684,-0.845284640789032,1.1127511262893677,0.786539614200592,jumping
1761226585908244700,2.030364110224694,-8.598179050123692,-11.591499280595778,-0.39693483710289,1.4424253702163696,0.9751915335655212,jumping
1761226585918258000,1.120262505069375,-8.621896610319613,-10.648878238499163,0.1131584271788597,1.3477119207382202,0.9535830616950988,jumping
1761226585928272100,0.2455252414250746,-8.378456102746725,-8.29728120983839,0.5433374643325806,0.9796953797340392,0.7493244409561157,jumping
1761226585938284800,-0.3348876420401036,-7.913229870048164,-5.281446949741244,0.7371350526809692,0.48686483502388,0.4563294947147369,jumping
1761226585948298000,-0.2882560200508683,-7.048467728179693,-1.8612416154026985,0.645026445388794,0.1103969514369964,0.2159006744623184,jumping
1761226585958312000,0.3525639858430251,-5.421538726520538,1.253276306286454,0.3262835741043091,-0.0451209396123886,0.1500815153121948,jumping
1761226585968324900,1.324945119702816,-3.0451585542589426,3.4363241099685427,-0.0952407643198967,-0.0711061954498291,0.2215626239776611,jumping
1761226585978338000,1.9501368734300133,-0.2882908721685409,4.82381950160861,-0.4531595706939697,-0.0468680299818515,0.4370391964912414,jumping
1761226585988351700,2.0715584365308284,2.4845190599411726,5.01110382219553,-0.6166627407073975,0.079568475484848,0.7460444569587708,jumping
1761226585998365000,1.5277294994994997,4.81807540499866,4.252878978028893,-0.5492299199104309,0.1850435733795166,0.9909261465072632,jumping
1761226586008378000,0.3159997670229524,6.1763657449424265,3.397060605594516,-0.2875604927539825,0.2259481251239776,1.0819491147994995,jumping
1761226586018391800,-1.4633791924029589,6.594239274835586,2.991961801600456,0.0527913197875022,0.1952976882457733,0.9110764861106871,jumping
1761226586028405000,-3.3625951491519808,6.451450514057278,3.235333920112252,0.3127235472202301,0.053378902375698,0.4815256297588348,jumping
1761226586038418000,-4.832635260748863,6.063230948671698,4.4059407110184425,0.4460827708244324,-0.1683035939931869,-0.0883238762617111,jumping
1761226586048431900,-5.585500039187074,5.853813706731796,6.007285774087905,0.5259357690811157,-0.3769705295562744,-0.6400517225265503,jumping
1761226586058445000,-5.247523052829504,5.99254354750812,6.817359463435411,0.602931022644043,-0.5806145668029785,-0.9917103052139282,jumping
1761226586068457700,-3.799859900474548,6.583385872387885,6.666897683811188,0.6530327796936035,-0.6738577485084534,-1.148711919784546,jumping
1761226586078472000,-2.6394436641931533,8.345961361855268,6.794808024409413,0.6075325012207031,-0.6576687097549438,-1.2641690969467163,jumping
1761226586088485000,-2.5469199865356087,10.015352371668817,7.08097942020595,0.4784863591194153,-0.5320713520050049,-1.324791431427002,jumping
1761226586098497800,-1.9456810630649328,10.63485789645314,7.027053768751025,0.2749888002872467,-0.1986105144023895,-1.2904787063598633,jumping
1761226586108512000,-0.5423526174010709,10.568778865867852,6.813305219608545,0.0454141944646835,0.1071619316935539,-1.100497841835022,jumping
1761226586118525000,0.7457674405883997,10.291733025813102,6.601098054689168,-0.2203655391931533,0.2254131734371185,-0.8165103793144226,jumping
1761226586128539000,1.3188523557856675,10.867399408870934,7.313119950607419,-0.503848135471344,0.1535813212394714,-0.5348200798034668,jumping
1761226586138552000,1.1807999758794905,11.16006484286189,7.832952218240499,-0.7309496402740479,0.0045404294505715,-0.3188308179378509,jumping
1761226586148564700,0.8846662081908434,10.438152252048251,7.772462385964393,-0.8514374494552612,-0.1499777734279632,-0.191981241106987,jumping
1761226586158579000,0.531392357045412,9.410938033032416,7.022611986911296,-0.9229140877723694,-0.3538908660411834,-0.1410319507122039,jumping
1761226586168592000,-0.0015444529630243,8.673761822113395,6.385405970263481,-0.9531039595603944,-0.5964683890342712,-0.1644307523965835,jumping
1761226586178605300,-0.928519524573162,8.15589413255155,5.722444165590405,-0.9142311215400696,-0.7888413667678833,-0.2364394962787628,jumping
1761226586188619300,-1.711945810817927,7.607692679524421,4.522961701072752,-0.8082264065742493,-0.8105905652046204,-0.3288898169994354,jumping
1761226586198632200,-2.1572072599828243,7.128990294659137,3.000302052183449,-0.6893395185470581,-0.6774481534957886,-0.4359469413757324,jumping
1761226586208645000,-2.294736785058677,6.806465728977322,1.8250228855520485,-0.605211079120636,-0.4687905609607696,-0.4868636429309845,jumping
1761226586218659000,-2.1298449135437605,6.663472385537624,1.0479594854027032,-0.5272193551063538,-0.2448796182870865,-0.4089391827583313,jumping
1761226586228672300,-1.525571883074194,6.750307203903794,0.3288631210535764,-0.4178627431392669,-0.0089256837964057,-0.2708263397216797,jumping
1761226586238685200,-0.92950239813067,6.646665043121576,-0.172227621230483,-0.2486531138420105,0.0725306794047355,-0.1849326342344284,jumping
1761226586248699100,-0.7065607809681445,5.751052420437335,-0.4950730894297361,-0.0040899701416492,-0.0622830614447593,-0.2230595201253891,jumping
1761226586258712300,-0.9378091848354786,3.850466052117944,-0.5214531468331813,0.2966115176677704,-0.3430182933807373,-0.3345162272453308,jumping
1761226586268725200,-1.00210491220057,1.5081576608061789,-0.9788906253516674,0.5757723450660706,-0.6140870451927185,-0.5082781910896301,jumping
1761226586278739200,-0.7572210008863359,-0.4146083906173706,-1.6383692640841006,0.8008755445480347,-0.7021076679229736,-0.5844069719314575,jumping
1761226586288752400,0.2317774692427366,-1.7754180199056864,-2.887495172692835,0.9417644739151,-0.4344900548458099,-0.4253768026828766,jumping
1761226586298765000,2.2563509403020143,-3.860776433730125,-4.5537025840342045,0.947538435459137,0.0814280658960342,-0.1436514854431152,jumping
1761226586308779300,4.403794054378569,-7.239761868929863,-5.587612501296401,0.663693904876709,0.2456441670656204,0.0408129133284091,jumping
1761226586318792200,5.280151649233699,-11.448161653763057,-4.464297622919083,0.0628171488642692,-0.02130070887506,-0.0285618994385004,jumping
1761226586328806100,5.396005641335249,-15.873574542492626,-2.6250056812569498,-0.7714396119117737,-0.5056119561195374,-0.3677359819412231,jumping
1761226586338819300,5.069454888877273,-18.51137570017576,-1.639587115441263,-1.5982253551483154,-1.177095651626587,-0.6642616391181946,jumping
1761226586348832300,3.920881942863762,-17.857037346941233,-2.174131506776809,-2.067978858947754,-1.5501041412353516,-0.6730276942253113,jumping
1761226586358846200,3.1906121503323317,-15.089666391015053,-6.141903503370284,-1.9920228719711304,-1.1626694202423096,-0.4102116823196411,jumping
1761226586368859400,2.445228375299275,-12.419364647221563,-12.677346890366076,-1.4690934419631958,-0.0609113611280918,-0.0063323727808892,jumping
1761226586378872000,1.4220130166612566,-10.687627363610266,-17.7173728556633,-0.7526798844337463,1.3536295890808103,0.4780098497867584,jumping
1761226586388886300,1.411731130491197,-9.885770882987975,-19.14957891116738,-0.1571136862039566,2.2691664695739746,1.002817153930664,jumping
1761226586398899200,2.416802052890509,-9.468061019223928,-16.647777292513847,0.2201851904392242,2.3130013942718506,1.3721672296524048,jumping
1761226586408912100,3.1986107478708026,-9.474768407908082,-11.79064121223688,0.494304358959198,1.444696068763733,1.517098069190979,jumping
1761226586418926300,3.4736785658508538,-10.029210216629505,-6.564604015028476,0.7207953929901123,0.1094931736588478,1.518147587776184,jumping
1761226586428939000,3.341268283484876,-9.927655383515358,-2.540900287854672,0.944508135318756,-1.080868363380432,1.459191918373108,jumping
1761226586438952200,2.204803854546696,-8.563333946713804,-0.6174573600828647,1.0636634826660156,-1.6139367818832395,1.3982996940612793,jumping
1761226586448966100,0.7493909648478031,-6.345604705750942,-0.0092547350794076,0.9397569298744202,-1.465014100074768,1.3254995346069336,jumping
1761226586458979000,-0.883151931170374,-3.851378490787744,0.6980085681349039,0.5573871731758118,-1.0220189094543457,1.2346018552780151,jumping
1761226586468992300,-2.540137779049575,-1.414741125962138,2.101715089863539,0.0860497802495956,-0.4750517606735229,1.0999596118927002,jumping
1761226586479006200,-3.6395074259549376,0.6252350083470344,3.3069863669157025,-0.2763950824737549,0.0061071906238794,0.932857632637024,jumping
1761226586489019100,-3.786225927397608,2.28916424562335,4.035226991707086,-0.541266679763794,0.3258204758167267,0.7205011248588562,jumping
1761226586499032300,-3.2681104005545376,3.5855648233652118,4.831647418755293,-0.7502659559249878,0.5132552981376648,0.4993228912353515,jumping
1761226586509046300,-2.551137896491587,4.939084880167246,5.636979466533661,-0.955130696296692,0.6099797487258911,0.3283498287200928,jumping
1761226586519059200,-1.4677829803198574,6.130493051561713,6.396419531708956,-1.1338675022125244,0.6065104007720947,0.246218666434288,jumping
1761226586529072400,-0.0412538836068008,6.958899100935459,6.955116659787297,-1.2903721332550049,0.5522212982177734,0.2322961986064911,jumping
1761226586539086000,1.3197301615335046,7.657486930263042,7.310604168394208,-1.3950002193450928,0.3498277962207794,0.266758918762207,jumping
1761226586549099300,1.9786460518166424,8.28360924283862,7.548252648562192,-1.3737939596176147,0.0002146800979971,0.3280100226402282,jumping
1761226586559112200,2.0218616548173127,8.446605509865284,7.460325358784198,-1.199069261550903,-0.3541879057884216,0.4169033765792846,jumping
1761226586569126100,1.9450367738120256,8.421779111644625,6.733656513354182,-0.868902862071991,-0.6072683930397034,0.4887309670448303,jumping
1761226586579139300,1.4758476288318634,8.32960117868483,5.492683223801851,-0.4722358882427215,-0.7629483938217163,0.4616822004318237,jumping
1761226586589153300,0.6348091846391558,7.68490626758635,4.503738237425685,-0.1343289464712143,-0.7926878929138184,0.3527575731277466,jumping
1761226586599166200,-0.0224359594201669,7.056376893869042,4.2495641543924805,0.0153845818713307,-0.7342343330383301,0.212516114115715,jumping
1761226586609179100,-0.7104834343045949,6.65061115039885,4.747886601006984,-0.0644242316484451,-0.6213648319244385,0.0315402150154113,jumping
1761226586619193300,-1.316971948866546,6.344148661723732,5.364460748514532,-0.3047477304935455,-0.4541051685810089,-0.1452222615480423,jumping
1761226586629206300,-1.656760660821199,6.580439882063866,5.7483536828726525,-0.5878885984420776,-0.2454702109098434,-0.2427072674036026,jumping
1761226586639219200,-1.4135796809673309,6.654245707508921,5.6037447209298605,-0.80516517162323,-0.135649487376213,-0.2573355138301849,jumping
1761226586649233200,-0.7569559202093631,6.562450636386871,5.099347922837734,-0.946460783481598,-0.2375598698854446,-0.2601707279682159,jumping
1761226586659246000,-0.4207880656329915,6.461963724765181,4.747089897671342,-1.0680935382843018,-0.4599707126617431,-0.3477038741111755,jumping
1761226586669259300,-0.9367580683473498,5.993425591039657,4.209146803808212,-1.1855902671813965,-0.5925495028495789,-0.1918453127145767,jumping
1761226586679273200,-0.3929432329066097,4.523793767982721,3.700852413755655,-1.293134689331055,-0.4616645276546478,-0.040809791535139,jumping
1761226586689286100,0.3206738963138312,3.232276870629191,3.8235692773640153,-1.4522907733917236,0.0909603089094162,-0.0099384281784296,jumping
1761226586699299300,-0.87643394802697,4.121221852117777,3.372337083226442,-1.6328918933868408,0.781498372554779,0.0842637717723846,jumping
1761226586709313300,-1.2511137214250865,5.182176428171992,3.2417332657605407,-1.795445680618286,1.4169493913650513,0.2237923741340637,jumping
1761226586719326200,-1.4802099156945945,5.4204988620787855,2.265648345479369,-1.936609506607056,1.899447679519653,0.3134669959545135,jumping
1761226586729339100,-1.3674138498589397,4.775567219614983,1.195838262796402,-2.032299757003784,1.9335172176361084,0.3035946786403656,jumping
1761226586739353000,-1.114737458037585,3.80692384751141,0.2152332347422838,-1.990808606147766,1.5666669607162476,0.2324378341436386,jumping
1761226586749366300,-1.1238237777475266,2.43422445846498,-0.7030149981200695,-1.7512463331222534,1.0957762002944946,0.1298661828041076,jumping
1761226586759379200,-1.1433347530990838,0.8523159172713756,-1.8141478557944295,-1.495845079421997,0.4636862874031067,0.1141660436987876,jumping
1761226586769393200,-0.4686910957975312,0.119207394182682,-2.5641923161149025,-1.21827232837677,-0.0257896520197391,0.139104962348938,jumping
1761226586779406300,0.5539388276353479,-0.4865624507158994,-3.485114152100682,-0.6607268452644348,0.2080196738243103,0.1591055691242218,jumping
1761226586789419300,0.4194544424090534,-2.3987363809764384,-7.320510060858726,-0.0252862274646759,0.8395587205886841,0.164189264178276,jumping
1761226586799433200,-0.4051089600618928,-4.168718347308039,-10.58834865873456,0.631001889705658,1.3636327981948853,0.1918209791183471,jumping
1761226586809446400,-0.8225796813078224,-4.599523254966735,-10.965434251165387,1.0362025499343872,1.4079738855361938,0.1788042336702346,jumping
1761226586819459000,-0.5605958013065159,-4.993775086253881,-10.347883367580176,0.9705337285995485,1.1571935415267944,-0.0067668510600924,jumping
1761226586829473300,-0.3888605667028575,-6.315718686053157,-8.880176375105977,0.5900745391845703,1.5233606100082395,-0.1778789460659027,jumping
1761226586839486200,-0.8585684017948806,-6.550521129140257,-8.065500744920968,0.1103010550141334,2.079186201095581,0.0276405736804008,jumping
1761226586849499100,-0.4310926385588943,-4.759732521623373,-7.489561390140652,-0.2506560683250427,2.3100945949554443,0.4619891047477722,jumping
1761226586859513300,2.164763666711748,-2.9641408977389334,-7.618429177594185,-0.5205081105232239,1.946263551712036,0.5243964791297913,jumping
1761226586869526300,2.31224321565479,-2.6356886955738066,-6.21145868563354,-0.4062811434268951,0.9937196373939514,0.4092925190925598,jumping
1761226586879539200,4.197929536484182,-7.508027605679631,-6.949843103298544,-0.0664736926555633,-0.3992961645126343,0.6506166458129883,jumping
1761226586889553400,6.920428792765736,-10.001588050210476,-7.205185645589232,0.3350995779037475,-1.444208741188049,1.013926386833191,jumping
1761226586899566000,7.42581986259222,-7.975351102918386,-7.086041379770636,0.7750841975212097,-1.851922869682312,1.2022945880889893,jumping
1761226586909579300,5.289878093478083,-6.763653592211008,-8.478956458371878,1.1898846626281738,-1.9987108707427976,1.2440241575241089,jumping
1761226586919593200,3.1109198971971868,-6.479896271818876,-9.219048264476656,1.5857003927230835,-1.8277419805526731,1.416182518005371,jumping
1761226586929606100,1.5108777334198356,-5.226881831339002,-9.593940730777382,1.8552045822143557,-1.3429651260375977,1.6926947832107544,jumping
1761226586939619300,1.227825054165721,-3.6186774038940666,-9.511042667338252,1.9589662551879885,-0.8792948126792908,1.7923574447631836,jumping
1761226586949633000,-0.0455621661268174,-3.470399982571602,-7.7402184049636125,1.807319164276123,-0.4536798596382141,1.457150936126709,jumping
1761226586959646200,-3.056438657686114,-4.374218708065152,-4.836585459679365,1.5349889993667605,-0.3567810952663421,0.7845838665962219,jumping
1761226586969660200,-5.5387821271538735,-5.434904404050111,-1.081905009624362,1.160722732543945,-0.6402577757835388,-0.1576214730739593,jumping
1761226586979673000,-6.731205613070726,-6.530471443802118,3.094440179300308,0.7712058424949646,-0.9049151539802552,-0.920752763748169,jumping
1761226586989686300,-5.48307894463241,-5.698274185451865,5.532094612213969,0.3929344117641449,-0.9873221516609192,-1.1514419317245483,jumping
1761226586999700200,-1.9856004009991883,-2.7932091615378853,5.834556633076072,0.0375691689550876,-0.7582423090934753,-0.9489100575447084,jumping
1761226587009713200,0.9076050390992312,0.8372983808815478,5.636152368059754,-0.3003598749637604,-0.0511525310575962,-0.4886245131492615,jumping
1761226587019726300,2.5605662345722315,4.020704545357823,4.401015529575944,-0.4920334219932556,0.670101523399353,0.0541314780712127,jumping
1761226587029740300,3.778995976144075,6.057629475402831,3.358903601157665,-0.4170715808868408,0.8358535170555115,0.4402291178703308,jumping
1761226587039753200,3.553295123401284,5.755639748227596,3.4187761783182617,-0.1395960301160812,0.4342557787895202,0.47938933968544,jumping
1761226587049766400,1.5669363052502274,4.963598559176922,4.338783822068572,0.1993010640144348,-0.136036992073059,0.2821606993675232,jumping
1761226587059780000,-0.2918285447753965,4.057212613543868,5.0810839518725865,0.4768407642841339,-0.4066247344017029,0.012733289040625,jumping
1761226587069793300,-1.3590277143076062,3.61259136197865,4.957860307785868,0.5354247093200684,-0.3994168937206268,-0.2594151496887207,jumping
1761226587079806200,-1.844223114454001,3.797717043226957,5.327150131773949,0.4361873865127563,-0.0765508711338043,-0.3990184962749481,jumping
1761226587089820200,-1.4424294894851744,4.324326257649064,5.710626302024722,0.2407049834728241,0.3256751298904419,-0.3600756227970123,jumping
1761226587099833300,-0.4166515503501519,5.086839738920331,6.06154986371696,-0.0492714643478393,0.7274498343467712,-0.2153326719999313,jumping
1761226587109846000,0.6407267381198704,5.74572859506607,6.421039593702554,-0.2963318526744842,0.9472687840461732,-0.0654542297124862,jumping
1761226587119860200,1.0047237163968383,6.104843061998486,6.671697193047404,-0.4350025355815887,0.8083385229110718,-0.0062517169862985,jumping
1761226587129873200,0.8982163754418492,5.781148283493518,6.87034578821361,-0.4544127285480499,0.3244165778160095,-0.0619932748377323,jumping
1761226587139886000,0.5434532721193507,5.058635973221064,7.290427641806006,-0.386861115694046,-0.1053643822669982,-0.1306967437267303,jumping
1761226587149900300,0.307330503681302,5.032691969147324,6.667465254566073,-0.3059318959712982,-0.0931663066148758,-0.2282842844724655,jumping
1761226587159913200,-0.0694677962407469,5.354066780272126,4.994522105228901,-0.1550024896860122,-0.1962031573057174,-0.3160697221755981,jumping
1761226587169926100,-1.1116185953646898,5.857191658732295,3.9088410841971633,-0.0007207889575511,-0.115028940141201,-0.3871305882930755,jumping
1761226587179939800,-1.5132690124705432,6.987011681219935,3.614887363961339,0.1338329464197158,0.1385753154754638,-0.4174917638301849,jumping
1761226587189952800,-1.1726437766265123,6.809961754399538,2.4906010102033616,0.2836306989192962,0.3199325799942016,-0.3668062090873718,jumping
1761226587199965700,-0.6750825236428528,6.965566157609224,2.630903799384832,0.4229959547519684,0.1387077569961547,-0.3460374474525451,jumping
1761226587209979600,-0.3503847421078011,7.056097492405772,3.82835300450921,0.3916931450366974,0.1180253773927688,-0.4390550255775451,jumping
1761226587219992800,-0.5482589919006452,6.468793278524279,4.332025579980016,0.3789597749710083,0.1763225048780441,-0.5468299388885498,jumping
1761226587230005800,-1.1580400086693463,6.1594929360747335,4.17709045433402,0.414838433265686,0.2097744792699813,-0.6346521973609924,jumping
1761226587240019700,-1.5126736769258975,6.076747432848811,4.013084718003869,0.4134823381900787,0.1638386398553848,-0.6790103912353516,jumping
1761226587250033000,-1.215262948103994,5.705227657851577,4.078680933508276,0.4655846953392029,0.1546688377857208,-0.6019039154052734,jumping
1761226587260045800,-0.415615704496391,5.483521427702904,3.5026480552256105,0.5367046594619751,0.1566753387451172,-0.3945450484752655,jumping
1761226587270059800,0.7048597492039204,4.939847681233287,2.2476018166571854,0.6049410104751587,0.0180061366409063,-0.1767333596944809,jumping
1761226587280072700,1.1361262099597602,3.933379897648096,1.479587399882078,0.6955256462097168,-0.1030854955315589,-0.0969273000955581,jumping
1761226587290086000,0.5223967843588442,1.7949030570983886,0.4566898750215769,0.7342027425765991,-0.1901080012321472,-0.2018454670906067,jumping
1761226587300099800,-0.3061395768636837,-1.3532517612546682,-0.5902572184681892,0.6624156832695007,-0.09041278809309,-0.4193739891052246,jumping
1761226587310112800,-0.5875251631557941,-4.460401784524321,-1.480959857279062,0.327045202255249,-0.2008769661188125,-0.6787480115890503,jumping
1761226587320125700,-0.0605798121144995,-7.297192313635349,-1.2453683096408843,-0.2203326821327209,-0.3961104154586792,-0.8671488761901855,jumping
1761226587330140000,1.3748862315662205,-10.445548792040348,-0.8820388553619384,-1.0243686437606812,-0.6592171788215637,-0.9180458784103394,jumping
1761226587340152800,2.449432110599428,-12.58009881453514,-1.874476944550872,-1.8729978799819944,-0.5035126805305481,-0.8135142922401428,jumping
1761226587350165800,2.524675421501696,-12.555173632115125,-4.4018478887468575,-2.6588664054870605,-0.2863739728927612,-0.7068882584571838,jumping
1761226587360180000,1.113101965790242,-11.229675554704665,-7.161295650458335,-3.100512981414795,0.33403280377388,-0.7079858183860779,jumping
1761226587370192600,-0.9552315904099492,-8.73979233738184,-10.995277600765228,-2.993590831756592,1.2082562446594238,-0.6196064352989197,jumping
1761226587380206800,-1.2559352963626385,-6.50321869521737,-16.163654051643608,-2.3056600093841557,2.1156747341156006,-0.3757210075855255,jumping
1761226587390219800,0.024980200542882,-5.150471376353502,-20.38373726000786,-1.0568349361419678,2.375038385391236,0.0284208543598651,jumping
1761226587400232700,1.6372455207511782,-4.538699076169729,-22.042717934966085,0.2891540825366974,1.753372311592102,0.3768543303012848,jumping
1761226587410247000,3.3573785835474728,-5.233626044902205,-20.09155814822912,1.3652775287628174,0.6721627712249756,0.5709625482559204,jumping
1761226587420259800,4.29824255284369,-6.392731198585033,-15.469855794680118,2.0828685760498047,-0.4351288676261902,0.6770593523979187,jumping
1761226587430272800,4.574278339073062,-7.698698061573505,-10.68860702229738,2.3192715644836426,-1.4939281940460205,0.7499271631240845,jumping
1761226587440287000,4.675422253298759,-9.017393473231792,-6.013432606279849,1.963699460029602,-2.215561389923096,0.8518733382225037,jumping
1761226587450299600,4.090572739093005,-9.342492273315786,-1.3033657405793666,1.1322951316833496,-1.94525408744812,1.045654535293579,jumping
1761226587460312800,2.8291590113192795,-8.508106565010547,0.8394938450992107,0.0004946033004671,-0.9416316151618958,1.1923259496688845,jumping
1761226587470326800,1.1165879082098602,-6.410462670108676,1.8236060044914484,-1.0876871347427368,0.2285128980875015,1.1589049100875854,jumping
1761226587480339700,-1.087642091971636,-4.8320618447750805,2.538177000370621,-1.8286161422729488,1.0397768020629885,0.9451726078987122,jumping
1761226587490353000,-2.706407076397538,-3.630353228640556,2.621892809933424,-1.9706640243530276,1.460554122924805,0.6522014737129211,jumping
1761226587500366600,-3.586201075442135,-2.3397499390006065,1.4647931508541103,-1.628483533859253,1.4011070728302002,0.3544420301914215,jumping
1761226587510379800,-3.567034310418367,-0.908101517379284,0.3978489789962768,-1.068265438079834,1.076576590538025,0.0297518111765384,jumping
1761226587520393000,-3.4345769740402696,0.1456172622025013,0.6372609617054462,-0.4875717461109161,0.680286169052124,-0.2873975038528442,jumping
1761226587530406700,-3.306681246489286,1.3179191665887833,1.756930177056789,-0.0622555911540985,0.3708606958389282,-0.5107032656669617,jumping
1761226587540419800,-2.5443583193540573,2.5449703137725592,3.411306573089957,0.1189770251512527,0.1429061889648437,-0.5746858716011047,jumping
1761226587550432800,-1.321128484024107,3.717683721569181,5.43712617175281,0.1338345408439636,0.1262236088514328,-0.4964770972728729,jumping
1761226587560446700,-0.2422633170196786,4.923675714111328,6.961091058021784,0.060815617442131,0.2044005095958709,-0.2643612027168274,jumping
1761226587570460000,0.8116912075467407,5.8701084234505885,7.557067823180556,-0.0171888992190361,0.1417749524116516,-0.0186102911829948,jumping
1761226587580472800,1.3177480478055774,6.346231897738575,8.363072655653953,-0.0106947422027587,0.0502506494522094,0.1622505635023117,jumping
1761226587590486800,1.0591590709395706,6.167632403388619,8.403986849844456,0.0410920232534408,-0.1547799855470657,0.2629494667053222,jumping
1761226587600500000,0.4716801215456798,6.147474581500887,8.343785771381855,0.1354819536209106,-0.4236951172351837,0.3321565091609955,jumping
1761226587610512600,0.0776310097564011,5.877282260602712,8.2078914462924,0.1701837480068206,-0.6213288307189941,0.431193083524704,jumping
1761226587620526800,0.138642783547379,5.841975969421863,7.980916335830092,0.1592533588409423,-0.6904014348983765,0.5490589141845703,jumping
1761226587630539800,0.1871742478085681,5.929230474504828,7.4983771492809055,0.1528457850217819,-0.7430518865585327,0.5909664034843445,jumping
1761226587640552700,-0.2488733462765812,5.7304404250413175,6.744623313048481,0.1342771649360656,-0.7441139221191406,0.6240878105163574,jumping
1761226587650567000,-0.638715106036514,5.329972203457356,6.028527884081005,0.1453029215335846,-0.6282100081443787,0.5729939937591553,jumping
1761226587660579600,-1.2449943617619574,5.14672576008439,5.21278491692543,0.1637980341911316,-0.5097890496253967,0.3936304152011871,jumping
1761226587670592800,-2.2473225613243875,5.000260941141844,4.583757530558109,0.1470691263675689,-0.3115876019001007,0.203000009059906,jumping
1761226587680606700,-2.7182711171925065,4.843635378190875,4.294011198884249,0.1464292854070663,-0.0782623067498207,-0.0172193143516778,jumping
1761226587690619600,-2.761573960085213,4.707022675698996,4.037918715009093,0.1881759315729141,-0.0656746104359626,-0.2572324573993683,jumping
1761226587700632800,-2.5984318548470733,4.884536712899804,4.2678491681456565,0.2788737714290619,-0.1935973018407821,-0.4095683097839355,jumping
1761226587710646800,-1.774533784417063,5.202074137818813,4.493744082155824,0.3620152473449707,-0.3504090309143066,-0.4124370813369751,jumping
1761226587720659700,-0.4598394250936806,5.666182764664292,4.387699536406994,0.4486181437969208,-0.4357534348964691,-0.352910041809082,jumping
1761226587730673000,0.2789366953026503,6.0742410029858345,4.038703727906942,0.5741568803787231,-0.4328218102455139,-0.3139647841453552,jumping
1761226587740686800,0.0628706310319947,6.300649127215147,3.1893682877510785,0.7295100688934326,-0.4007362723350525,-0.3399204015731811,jumping
1761226587750699800,-0.491238260507211,6.0413826894789935,2.787202614599466,0.8654194474220276,-0.3693788647651672,-0.439977765083313,jumping
1761226587760713000,-1.10140034901537,5.508460054126382,2.582766668203473,0.8817998766899109,-0.3322585225105285,-0.5695809125900269,jumping
1761226587770727000,-1.5571356267258525,5.241064085948467,2.7655793963342905,0.8055935502052307,-0.1275839507579803,-0.6297840476036072,jumping
1761226587780739800,-1.3435478211030365,5.212488564327359,2.5580875694990155,0.6716404557228088,0.0648800879716873,-0.5415923595428467,jumping
1761226587790752800,-0.2574802119065076,5.172908833611011,2.20272105692327,0.5832583904266357,0.1648604869842529,-0.3705066442489624,jumping
1761226587800766700,0.8170571184940636,4.59770656093359,1.516553733229637,0.5543603897094727,0.0845018103718757,-0.2453443706035614,jumping
1761226587810780000,1.0680042023047804,3.331760158166289,0.2786053444564342,0.6060011982917786,0.0115948421880602,-0.2194115817546844,jumping
1761226587820792800,0.4345040179049595,1.915122843194008,-1.107671903565526,0.7494472861289978,0.1303631663322448,-0.2945472300052643,jumping
1761226587830806800,-0.3391285310128703,0.394400299847126,-2.957804095932841,0.8231127262115479,0.2705032229423523,-0.4579569101333618,jumping
1761226587840819700,-0.5979295066617429,-2.2594658574521542,-3.921692382463813,0.6489288806915283,-0.0541987493634223,-0.7566816210746765,jumping
1761226587850832600,-0.126926590257883,-5.678130392089486,-2.2807646660685537,0.1606092602014541,-0.5484074354171753,-1.1038100719451904,jumping
1761226587860846800,0.8092611308556049,-8.743740782746672,-0.1970066731780767,-0.568026065826416,-0.8645642995834351,-1.3142876625061035,jumping
1761226587870859800,2.063276492006332,-10.905782623279094,-0.0464402641355991,-1.5215924978256226,-1.329284906387329,-1.317378282546997,jumping
1761226587880872700,2.672807296873629,-11.149956121301653,-0.3190916686236858,-2.553788423538208,-1.6427404880523682,-1.1544499397277832,jumping
1761226587890886700,2.539693542413413,-9.920956762659548,-2.0090169324219227,-3.3736019134521484,-1.4452290534973145,-0.6777178645133972,jumping
1761226587900899800,3.0072207455307245,-8.647854642918706,-7.274184947535395,-3.621782779693604,-0.6134393215179443,0.0647665187716484,jumping
1761226587910912800,3.6337443323835728,-6.92198829716742,-14.456063367295265,-3.174556970596313,0.4726313352584839,0.7025307416915894,jumping
1761226587920926700,3.000604542261362,-5.613057323676348,-21.13519626330137,-2.2028748989105225,1.0407676696777344,1.0322200059890747,jumping
1761226587930940000,1.309073596832156,-5.465509970194101,-23.85198854011297,-1.0109690427780151,0.7474209666252136,1.2105159759521484,jumping
1761226587940952800,0.3724399951146915,-5.957523087531328,-22.154076369214057,0.2046421468257904,-0.2530124485492706,1.1928948163986206,jumping
1761226587950966800,-0.2124295754984021,-7.1602604621917,-18.04292232212424,1.1421022415161133,-1.539123296737671,1.0454963445663452,jumping
1761226587960979700,-0.6595418401617557,-8.315304357784987,-13.17643622969985,1.5118260383605957,-2.474076271057129,0.9833397269248962,jumping
1761226587970993000,-0.477508462372981,-7.931196903893351,-7.851639383053779,1.337505340576172,-2.473549127578736,1.036462903022766,jumping
1761226587981006800,-0.6448239443056285,-7.030322999680042,-4.2837645301580425,0.6896329522132874,-1.739014983177185,1.0882962942123413,jumping
1761226587991019800,-1.2299980142906308,-6.374458459791541,-1.6331471455216406,-0.2172210365533828,-0.6343176960945129,0.9725342988967896,jumping
1761226588001032700,-2.295874849177897,-6.170992819732427,0.9295306743770836,-1.1836762428283691,0.4806839823722839,0.6640622019767761,jumping
1761226588011047000,-3.3333725617989898,-5.73114477391839,3.0886037282317877,-1.9909507036209104,1.3156830072402954,0.2023995071649551,jumping
1761226588021059800,-3.739507430842519,-4.64388379021883,4.706373271879554,-2.4768528938293457,1.6910159587860107,-0.3054612278938293,jumping
1761226588031072800,-3.203433053460717,-2.995435615190864,5.312110968074202,-2.605113983154297,1.6278585195541382,-0.6711130142211914,jumping
1761226588041087000,-1.6572154188513757,-0.9323346258819104,5.276405448442698,-2.374758005142212,1.4238319396972656,-0.7477655410766602,jumping
1761226588051100000,0.6567565202921628,1.5504028113394974,4.244470630645751,-1.82867443561554,1.2161139249801636,-0.5438526272773743,jumping
1761226588061112800,2.846226758237183,3.7505186542004334,2.6803543512523174,-1.0234675407409668,0.8803406953811646,-0.1693579405546188,jumping
1761226588071126800,4.274330931380391,5.383634820061922,1.661865875005722,-0.1251330077648162,0.2782486975193023,0.1986989080905914,jumping
1761226588081139700,4.85125286745727,5.995600596991181,2.0775106229335067,0.7260949611663818,-0.4300676882266998,0.4643071591854095,jumping
1761226588091153000,4.36180054051876,5.720941359812021,3.2991759854257103,1.4329471588134766,-0.9946858286857604,0.5946846008300781,jumping
1761226588101166800,3.136173580919206,5.134586409479379,4.507845088222623,1.9110389947891235,-1.3662210702896118,0.5976678133010864,jumping
1761226588111179800,1.7277701335459947,4.544000105187297,5.801634606683254,2.07753849029541,-1.5049165487289429,0.5192734003067017,jumping
1761226588121192700,0.5793791930358857,4.084171347618103,7.365527598714828,2.0239417552948,-1.365756869316101,0.4046126902103424,jumping
1761226588131206700,-0.3086777535717934,3.973051982823014,8.319858952349424,1.757283329963684,-1.0689656734466553,0.2624302506446838,jumping
1761226588141219800,-1.018313338875398,3.936179172977805,8.958011894458531,1.3635783195495603,-0.7754234671592712,0.1441760510206222,jumping
1761226588151232800,-1.3267067225478588,3.5190456477969883,9.393149278363586,0.9099743366241456,-0.3177496492862701,-0.0224491544067859,jumping
1761226588161246700,-1.6884610364645718,3.763643508711457,9.445615378659964,0.3991239666938782,0.1715320348739624,-0.2220739722251892,jumping
1761226588171260000,-2.24577547801286,4.249209349605441,9.324930313140154,-0.122237242758274,0.5303211212158203,-0.3852501213550567,jumping
1761226588181275600,-2.129100524917245,4.408298672321439,9.15831468657255,-0.5175095200538635,0.7533250451087952,-0.474402904510498,jumping
1761226588191289600,-1.3957228294983506,4.526237069481611,8.43540431689322,-0.7282933592796326,0.8383100032806396,-0.4804728031158447,jumping
1761226588201302800,-0.5293624586530029,4.523213337746262,7.11727413790226,-0.7503685355186462,0.7507396340370178,-0.4629327654838562,jumping
1761226588211315700,-0.2324675338661298,4.6827094876974815,5.947562834531069,-0.5943813323974609,0.6216660737991333,-0.502985417842865,jumping
1761226588221329700,-0.6847928204700351,4.8981017123937605,4.69572912826836,-0.3304148018360138,0.5101142525672913,-0.5342276692390442,jumping
1761226588231342800,-0.8498244657818228,5.408140315765142,3.4058465541183947,-0.0096018929034471,0.4363130331039428,-0.5212197303771973,jumping
1761226588241355800,-0.6471979799605906,5.9298676033645865,2.46007435451448,0.3295281827449798,0.3883650004863739,-0.4692510366439819,jumping
1761226588251369700,-0.4675984417226165,6.14185615709722,1.771127044713497,0.6514449715614319,0.234662264585495,-0.4265469908714294,jumping
1761226588261383000,-0.4954787841537967,5.970605856466293,1.6874737789928913,0.9028967022895812,0.0198370963335037,-0.3955653011798858,jumping
1761226588271395600,-0.5697890885222703,5.656279210287332,1.953362265217304,1.0086815357208252,-0.0648445039987564,-0.3552168011665344,jumping
1761226588281409800,-0.6690265115395188,5.30381543341577,1.9959838478475809,1.0034035444259644,0.0366398468613624,-0.2978751361370086,jumping
1761226588291422700,-0.8299189381547272,4.910274380746484,1.6030910299539565,0.9613075256347656,0.2779030799865722,-0.2354402542114257,jumping
1761226588301435600,-1.0237040189377964,4.354012370860576,0.955632499361038,0.9484370946884156,0.5125346779823303,-0.1799674481153488,jumping
1761226588311449900,-1.1106360140681266,3.9899849974453447,0.1962467947214841,0.9484125971794128,0.6022137403488159,-0.134892389178276,jumping
1761226588321462500,-1.0570291462387889,3.49520826061368,-0.5985024842441081,0.9513631463050842,0.7015140056610107,-0.1538484692573547,jumping
1761226588331475700,-1.2571733137249943,2.066840175837278,-1.5082406629145144,0.9281819462776184,1.0080161094665527,-0.2521153688430786,jumping
1761226588341489700,-1.5234433466129005,-0.3646913902819156,-2.352367428511381,0.8388171195983887,1.4736911058425903,-0.4148492217063904,jumping
1761226588351502600,-1.4230606260180472,-3.176116591989994,-2.3999358198940755,0.6008469462394714,1.5558823347091677,-0.6490193605422974,jumping
1761226588361515800,-0.2302645439291372,-6.370100264582038,-1.0847522157490253,0.2055670768022537,0.7449865341186523,-0.9888222813606262,jumping
1761226588371529700,1.9469081206418573,-9.747072021871803,1.4264473458468914,-0.3419412672519684,-0.8857375979423523,-1.1619900465011597,jumping
1761226588381542700,5.899381279686093,-13.214252457875013,1.418857329109311,-0.8781270384788513,-2.589790105819702,-1.045162320137024,jumping
1761226588391555800,7.281050741651653,-13.679303918528555,-1.3066729654312133,-1.379058599472046,-3.267646789550781,-0.8583036065101624,jumping
1761226588401569500,4.181704085609317,-10.921052673125269,-6.8889312462180845,-1.7090669870376587,-2.648038625717163,-0.5256809592247009,jumping
1761226588411582700,0.4111313256239518,-8.243889811390638,-13.652563211119174,-1.7895569801330566,-1.4876718521118164,0.0251635238528251,jumping
1761226588421596000,-1.8611179890230296,-5.844390629348158,-18.91835958726406,-1.1741982698440552,0.2577785849571228,0.4278274178504944,jumping
1761226588431609600,-2.458877545945346,-5.038343711298704,-22.570997128427027,-0.2209866344928741,0.9429449439048768,0.7632637023925781,jumping
1761226588441622800,-2.1370373092658816,-6.108679863682389,-23.145736459767814,0.6458625793457031,0.5724369287490845,0.9252678155899048,jumping
1761226588451635700,-1.4519953363403677,-6.854275527900457,-17.79484071074724,1.2034825086593628,-0.1726897209882736,0.7254577875137329,jumping
1761226588461649700,-1.8300133873157205,-8.541146664825082,-12.202111889350414,1.5440382957458496,-0.4367149472236633,0.4779419898986816,jumping
1761226588471662800,-2.405243863174319,-8.934937308341263,-8.796361196821927,1.6479780673980713,-0.2246988266706466,0.3471994400024414,jumping
1761226588481675500,-1.480862095993012,-8.66362445898056,-6.348321563494205,1.4754852056503296,0.1141539737582206,0.1715739965438842,jumping
1761226588491689700,-0.90527842278257,-8.43734259147942,-3.1864906864881517,1.1115175485610962,0.4079248607158661,-0.122914619743824,jumping
1761226588501703000,-1.0315781133137645,-8.044266233712435,0.281377147257328,0.5454019904136658,0.7360687255859375,-0.4026106595993042,jumping
1761226588511715600,-0.5369499181073158,-7.175210194042324,3.23464769141376,-0.1111329793930053,1.1158208847045898,-0.6077483892440796,jumping
1761226588521729800,0.3951248147293925,-5.707009865093231,5.478326197147369,-0.6480455994606018,1.2859984636306765,-0.7272005081176758,jumping
1761226588531742700,1.4445827219963072,-3.722361650252342,7.00841395021081,-1.095171570777893,0.981564164161682,-0.6519907116889954,jumping
1761226588541755600,3.067577306815981,-1.8918816683381796,8.828200688675045,-1.557231068611145,0.1595508307218551,-0.3966137170791626,jumping
1761226588551769900,4.407990629285574,-0.4622551079332828,10.495293942940236,-2.046290874481201,-0.607754111289978,-0.0817561894655227,jumping
1761226588561782500,4.47773958055526,0.4173042055726051,10.7253149969697,-2.465003967285156,-0.8793783783912659,0.1987852752208709,jumping
1761226588571795700,2.9310069821611044,1.4924275922328232,8.515856156224013,-2.718871593475342,-0.8006505370140076,0.3673298060894012,jumping
1761226588581809700,0.8552909875594079,2.9465853673040865,5.795509986323118,-2.804099798202514,-0.5140910744667053,0.459323525428772,jumping
1761226588591822600,-0.7653757388345896,4.087008616870642,3.2346780865520235,-2.4907712936401367,0.1326110213994979,0.4459549784660339,jumping
1761226588601835800,-2.249858655673265,4.754540213677287,-0.2197206092894077,-1.7553260326385498,0.7935898900032043,0.3017861843109131,jumping
1761226588611849700,-3.541983455792069,5.1566784143000834,-3.334809608864784,-0.7270015478134155,1.094991683959961,0.0844432041049003,jumping
1761226588621862700,-4.121273874565959,5.01311866914928,-4.5836090619981285,0.389590173959732,0.9713646173477172,-0.2580577433109283,jumping
1761226588631875800,-4.345927264082431,4.085768261420727,-3.728728262674808,1.3644882440567017,0.3961425721645355,-0.6506966352462769,jumping
1761226588641889800,-3.966886738191545,3.87380425760746,-0.8646025673925876,2.0413658618927,-0.2449231296777725,-0.9162230491638184,jumping
1761226588651902700,-2.465168755044043,4.374472390565276,2.403902969959378,2.3151097297668457,-0.6270661950111389,-0.9503069519996644,jumping
1761226588661916000,-0.5371081408763304,5.128590968456864,4.674489940884709,2.274449348449707,-0.4733670651912689,-0.7770125269889832,jumping
1761226588671929600,0.7709815960176288,6.000239362707734,5.80378623175919,1.9767863750457764,-0.060315303504467,-0.4444218277931213,jumping
1761226588681942800,1.4808441219449042,6.296836290928721,6.76450816321373,1.4643237590789795,0.2587956488132477,-0.1697561144828796,jumping
1761226588691955700,1.3306550217822193,5.8501703817933794,8.689208982092142,0.8628272414207458,0.4569396078586578,-0.0533594638109207,jumping
1761226588701969700,0.4412730371158569,5.435014878687262,10.058661936563253,0.3107917904853821,0.5380189418792725,-0.0399662367999553,jumping
1761226588711982800,-0.2554614924952387,5.400991613054275,10.390551127439736,-0.1574124544858932,0.5090157985687256,-0.0590014457702636,jumping
1761226588721995800,-0.4223080052092671,5.552505532079935,9.90053006070256,-0.4326600730419159,0.4840502142906189,-0.0438763163983821,jumping
1761226588732009700,-0.2787246599871665,5.764809143111109,8.259192594462633,-0.4870586097240448,0.3802828192710876,0.0208302438259124,jumping
1761226588742022700,0.0774516346015036,5.8818467920392745,6.390799353739619,-0.3391492962837219,0.3143722414970398,0.0578266121447086,jumping
1761226588752035600,-0.1168571777947247,5.918239709413052,4.644913717788458,-0.004157468676567,0.3217270970344543,0.0429608449339866,jumping
1761226588762049800,-0.8293912610188126,6.131037825962901,2.976165682053566,0.4149528741836548,0.2367496639490127,-0.0138254221528768,jumping
1761226588772062700,-1.2201038853291422,6.277383402439952,2.0630892988711595,0.8240780830383301,-0.0670056939125061,-0.1008684411644935,jumping
1761226588782075600,-1.1872517823673785,6.2047466207742685,2.163490870296955,1.189202070236206,-0.3611199557781219,-0.1864366978406906,jumping
1761226588792089600,-1.1752452643617988,6.447257154020667,2.213629988950491,1.4153965711593628,-0.3731995224952698,-0.1837445199489593,jumping
1761226588802102800,-1.0460163885109126,6.68046911304593,1.807296090203524,1.5159450769424438,-0.101443812251091,-0.0886964499950409,jumping
1761226588812115700,-0.791030112311989,6.577896627321839,1.407037711977959,1.5304739475250244,0.3076983988285064,0.0461660213768482,jumping
1761226588822129700,-0.6433908427625894,5.998138006514311,1.311729664298892,1.5198516845703125,0.5867664217948914,0.1250849664211273,jumping
1761226588832142800,-0.6975254607930779,5.08855706423223,1.602635102880001,1.5189542770385742,0.6482383012771606,0.1043362691998481,jumping
1761226588842155800,-0.8357726326189935,4.050784626322985,2.158850351014733,1.535993218421936,0.4845057129859924,0.0032023233361542,jumping
1761226588852169700,-0.924593875562027,3.238006938713789,2.6214848136544227,1.514750838279724,0.1276106834411621,-0.0849736109375953,jumping
1761226588862182700,-0.5886878502596169,2.6167420030415056,3.074221567136049,1.4266124963760376,-0.0224263221025466,-0.0915192365646362,jumping
1761226588872195800,0.2821666171345859,1.536729675295949,2.598253575670719,1.2162911891937256,0.1359990090131759,-0.0520397424697876,jumping
1761226588882209800,0.9652751377794891,0.1770306375980377,1.6083575721800327,0.9048033952713012,0.5597370266914368,-0.0485314466059207,jumping
1761226588892222700,0.9561614186059684,-1.5549714344292878,0.8610854991823435,0.459254115819931,0.6316184401512146,-0.1998005956411361,jumping
1761226588902235600,0.4405374893829226,-3.2012779212534426,1.5900941857367754,-0.0344301424920558,0.3653554618358612,-0.4353139400482178,jumping
1761226588912249900,0.0721095429211854,-4.122299710482359,2.5169191082865,-0.4808512926101684,0.2248063385486602,-0.5417173504829407,jumping
1761226588922262800,0.915570830346644,-4.412035520762205,1.6250199531674383,-0.7983649969100952,0.3139585852622986,-0.4929631352424621,jumping
1761226588932275700,2.136674175041914,-4.378816557249427,-0.2688777311682701,-1.046438694000244,0.3551360964775085,-0.3362363874912262,jumping
1761226588942290000,2.885621487775445,-4.274883889088034,-1.3362462659180163,-1.3199578523635864,0.3479513525962829,-0.2517902553081512,jumping
1761226588952302600,2.7493361175417896,-4.468603795680403,-1.4393021512448787,-1.6389611959457395,0.4390508830547333,-0.2420223206281662,jumping
1761226588962315800,1.9148701836071904,-4.939115859827399,-1.954034465390444,-1.985069990158081,0.4600026309490204,-0.2192782908678054,jumping
1761226588972329700,2.0292625787235794,-5.6236640578866,-2.2256652946591378,-2.3603744506835938,0.2896197140216827,-0.1623910367488861,jumping
1761226588982342700,3.079371789506077,-6.300668416437507,-2.0898457883715627,-2.6114823818206787,0.0134310238063335,-0.1074398756027221,jumping
1761226588992355800,3.787558637306094,-6.457440694382786,-2.7600457276046275,-2.694432258605957,-0.4037494361400604,-0.027485916391015,jumping
1761226589002369500,4.249158788461983,-6.242644097492098,-4.010132882460952,-2.5470266342163086,-0.7676399350166321,-0.0004123849794268,jumping
1761226589012382700,3.326700244428217,-5.912600242221355,-5.847749292126298,-2.2092809677124023,-0.945914089679718,0.0887606292963028,jumping
1761226589022395600,1.939315035164356,-4.706783021724224,-8.502957511684299,-1.7159723043441772,-0.6312795877456665,0.2531781792640686,jumping
1761226589032409600,0.7702006017077714,-3.751417648866772,-10.752325753492116,-1.1115081310272217,-0.2701176404953003,0.4231219589710235,jumping
1761226589042422800,0.1072485877763479,-3.50755394744575,-12.254085237693786,-0.6324092745780945,-0.1476737409830093,0.4671573340892792,jumping
1761226589052435700,-0.398245504033193,-4.189857581448555,-10.316123955225944,-0.4188050627708435,-0.1255732327699661,0.4321902692317962,jumping
1761226589062449700,-0.829271141770482,-4.606636886364221,-7.123367194080353,-0.3976082503795624,-0.0516199022531509,0.3539319932460785,jumping
1761226589072462800,-1.0209710868425668,-4.778125671926141,-4.4032448960632085,-0.4966229796409607,0.0368231423199176,0.3170954287052154,jumping
1761226589082475800,-0.9455517617862672,-4.7641094215333455,-2.5421628551363944,-0.574317991733551,0.267143040895462,0.2081581652164459,jumping
1761226589092488700,-1.266641399294138,-4.401887636235356,-1.7258377041786908,-0.6853864789009094,0.5192387104034424,0.1166263818740844,jumping
