timestamp,acc_x,acc_y,acc_z,gyr_x,gyr_y,gyr_z,activity
1761304397068481000,0.0,0.0,0.0,,,,jumping
1761304397088754000,0.0038623511791229,-0.1984140872955322,0.1067781448364257,1.384103536605835,-0.5726693272590637,0.0553580336272716,jumping
1761304397109026800,0.1104359775781631,-0.5705776214599609,-0.357060432434082,1.7597745656967163,-0.5659499764442444,0.0449736304581165,jumping
1761304397129299700,0.024906612932682,-0.6582159996032715,-0.974477767944336,1.7884844541549685,-0.5952706336975098,0.0168746560811996,jumping
1761304397139436300,-0.0018656514585018,-0.5098304748535156,-1.3363971710205078,1.6858620643615725,-0.8420529365539551,-0.0319931246340274,jumping
1761304397149572600,0.000688649713993,-0.448948860168457,-0.8653316497802734,1.6437135934829712,-1.019198656082153,-0.1010188683867454,jumping
1761304397159709200,0.2664339542388916,-0.350165843963623,-0.1825933456420898,1.643102765083313,-0.9965972900390624,-0.2262425571680069,jumping
1761304397169845500,0.7115997672080994,-0.190516710281372,0.4107465744018554,1.655930519104004,-0.8102889060974121,-0.4015557169914245,jumping
1761304397179982000,1.06290864944458,-0.029738426208496,0.1774625778198242,1.6137820482254028,-0.4798205196857452,-0.6031352877616882,jumping
1761304397200255000,1.2392364740371704,0.4534049034118652,-0.9317703247070312,1.2674317359924316,0.1756949424743652,-0.8865684270858765,jumping
1761304397220527900,0.0434078574180603,-0.0851697921752929,-1.472050666809082,0.8837432861328125,0.2117349356412887,-0.8413657546043396,jumping
1761304397230664400,-0.4031348824501037,-0.0299563407897949,-1.5796895027160645,0.6546755433082581,0.0632226914167404,-0.7497386336326599,jumping
1761304397250937300,-1.225505828857422,0.7092800140380859,-0.6610555648803711,0.1378987729549408,0.3326826989650726,-0.5029563903808594,jumping
1761304397261074000,-1.65949285030365,0.7048921585083008,-0.0639944076538086,-0.0264191441237926,0.5373165011405945,-0.3013767600059509,jumping
1761304397271210200,-2.040812730789185,0.9282355308532716,0.4623222351074219,-0.1265980899333953,0.7382852435112,-0.0912453085184097,jumping
1761304397281346800,-2.012893915176392,0.871483325958252,0.7900304794311523,-0.1516428291797638,0.817084550857544,0.1091125905513763,jumping
1761304397291483100,-1.9045226573944087,0.5804367065429688,0.7191991806030273,-0.0997208133339881,0.8305231928825378,0.2868691384792328,jumping
1761304397301619700,-1.441103458404541,0.4677286148071289,0.7423381805419922,-0.0019852535333484,0.7333984971046448,0.4065952003002167,jumping
1761304397311756300,-0.9901233911514282,0.2969346046447754,0.3106908798217773,0.1122431829571724,0.5360948443412781,0.4530195891857147,jumping
1761304397321892600,-0.5396203994750977,0.1312432289123535,-0.1041603088378906,0.2356343269348144,0.3125247359275818,0.4792860448360443,jumping
1761304397332029200,-0.3462234735488891,0.0376920700073242,-0.0964803695678711,0.4048390090465545,0.1146102175116539,0.4994439780712127,jumping
1761304397342165500,-0.1136772632598877,0.0535182952880859,0.4662418365478515,0.6216897964477539,-0.0925433561205864,0.4957789182662964,jumping
1761304397352302000,0.3993383944034576,0.2536115646362304,0.8112068176269531,0.844038188457489,-0.2904578745365143,0.4188121557235718,jumping
1761304397362438400,0.9776413440704346,0.4427971839904785,0.6706962585449219,1.0401201248168943,-0.4987567961215973,0.2954210042953491,jumping
1761304397372575000,0.8426027297973633,0.3929080963134765,0.3755826950073242,1.1776371002197266,-0.7919634580612183,0.2062373012304306,jumping
1761304397382711600,0.1857170164585113,0.041755199432373,0.1833381652832031,1.3413442373275757,-0.8921424150466919,0.1818034201860427,jumping
1761304397392848000,-0.1513214409351349,-0.1294937133789062,2.2691650390625,1.5991218090057373,-0.4486673176288605,0.2007396817207336,jumping
1761304397402984400,-0.3001662194728851,-0.524566650390625,3.2754030227661133,1.9130972623825075,-0.2812951505184173,0.2147891670465469,jumping
1761304397413120800,-0.0960502475500106,-0.8456645011901855,3.1164464950561523,2.264945268630981,-0.400410383939743,0.1891335844993591,jumping
1761304397423257300,-0.2893650531768799,-0.982196807861328,2.731006622314453,2.692538261413574,-0.6252021789550781,0.2306711971759796,jumping
1761304397433394000,-1.337770700454712,-1.523019313812256,2.2748050689697266,3.1299049854278564,-0.8542698621749878,0.3528406620025635,jumping
1761304397443530200,-1.6082442998886108,-1.9972038269042969,2.2154197692871094,3.4909157752990723,-0.7351546883583069,0.4750100970268249,jumping
1761304397453666800,-0.9292258024215698,-2.2063446044921875,3.099137306213379,3.732811212539673,-0.4792096614837646,0.5299863815307617,jumping
1761304397463803100,-0.146974578499794,-1.7416958808898926,2.5224390029907227,3.836120843887329,-0.487761527299881,0.4829511046409607,jumping
1761304397473939700,0.5892846584320068,-0.8339805603027344,1.0602779388427734,3.898427248001098,-0.4364503622055053,0.3430670797824859,jumping
1761304397484076000,1.0569151639938354,-0.5245380401611328,0.478116512298584,3.8513920307159424,-0.3759764730930328,0.2270061075687408,jumping
1761304397494212600,0.4754113554954529,-0.9659152030944824,-0.8130497932434082,3.663785457611084,-0.4010212123394012,0.1818034201860427,jumping
1761304397504349200,-0.0379288494586944,-1.1640148162841797,-1.4459176063537598,3.45243239402771,-0.3356605768203735,0.2099023908376693,jumping
1761304397514485500,-0.5560941696166992,-0.9268441200256348,-1.1430587768554688,3.2490200996398926,-0.0962084457278251,0.2740413546562195,jumping
1761304397524622000,-0.7519079446792603,-1.0643954277038574,-1.1811270713806152,3.016287326812744,0.1060583516955375,0.3516189455986023,jumping
1761304397534758400,-0.7489213943481445,-1.2166767120361328,-1.877439022064209,2.7823328971862797,0.1946312040090561,0.4047626554965973,jumping
1761304397544895000,-0.0726083815097808,-1.0023136138916016,-1.7349424362182615,2.654054880142212,0.3180223405361175,0.3558948934078216,jumping
1761304397555031300,1.3178541660308838,-0.2930707931518554,-0.5487403869628906,2.673602104187012,0.6454364657402039,0.1873010396957397,jumping
1761304397565167900,2.0277867317199707,0.006134033203125,0.6869215965270996,2.7597315311431885,0.90993332862854,0.0168746560811996,jumping
1761304397575304400,1.939988136291504,-0.2881793975830078,0.2530741691589355,2.839141607284546,0.8195279240608215,-0.082082599401474,jumping
1761304397585440800,1.0849359035491943,-0.5279693603515625,-0.9228520393371582,2.839752435684204,0.5079958438873291,-0.1010188683867454,jumping
1761304397595577300,0.0842305421829223,-0.7527542114257812,-2.445452213287353,2.7805004119873047,0.1042258143424987,-0.0405449867248535,jumping
1761304397605713700,-0.851548433303833,-1.2359895706176758,-3.0460782051086426,2.697425127029419,-0.1841704547405243,0.1066692024469375,jumping
1761304397615850200,-1.419897198677063,-1.7168550491333008,-3.061213731765747,2.607019662857056,-0.3289412558078766,0.2984752357006073,jumping
1761304397625986800,-1.4307764768600464,-1.927053451538086,-2.249939441680908,2.605187177658081,-0.328330397605896,0.4621823132038116,jumping
1761304397636123100,-0.7552714347839355,-2.026340961456299,-1.0019104480743408,2.64489221572876,-0.215323656797409,0.5666372179985046,jumping
1761304397646259700,-0.3708405494689941,-1.897432804107666,-0.8029158115386963,2.619236707687378,-0.1194206401705741,0.59595787525177,jumping
1761304397656396000,0.1531845331192016,-1.534742832183838,-1.3462343215942385,2.4885153770446777,-0.0198525357991457,0.5250995755195618,jumping
1761304397666532600,0.9185075163841248,-0.7017478942871094,-1.823063611984253,2.2240185737609863,0.1207186877727508,0.385215550661087,jumping
1761304397676669200,1.332995057106018,-0.1469869613647461,-2.6626622676849365,1.866062045097351,0.2129566222429275,0.2251735776662826,jumping
1761304397686805500,1.1949881315231323,0.1160011291503906,-3.510033130645752,1.5203224420547483,0.2740413546562195,0.1323247849941253,jumping
1761304397696942000,0.4058945178985595,0.0642261505126953,-3.9438767433166495,1.1977951526641846,0.285647451877594,0.0895654782652854,jumping
1761304397707078400,0.3928698301315307,-0.0908803939819336,-3.5202221870422363,0.964375138282776,0.3827721774578094,0.0553580336272716,jumping
1761304397717215000,0.6646298766136169,-0.2086467742919922,-2.214038610458374,0.8171609044075012,0.5703022480010986,0.071240060031414,jumping
1761304397727351300,0.7689003348350525,-0.593388557434082,-1.5468008518218994,0.7383615970611572,0.6356629133224487,0.0865112394094467,jumping
1761304397737488000,0.909179985523224,-0.4691829681396484,-1.4851198196411133,0.7273663878440857,0.6167266368865967,0.1054475083947181,jumping
1761304397747624400,0.6362491250038147,-0.1928310394287109,-1.6197547912597656,0.7279772162437439,0.5275429487228394,0.118275299668312,jumping
1761304397757760800,0.4854644536972046,-0.0506134033203125,-1.4685624837875366,0.7811209559440613,0.4353050291538238,0.0968956500291824,jumping
1761304397767897300,0.5489093661308289,0.0874500274658203,-0.5505954027175903,0.8281561732292175,0.4230880737304687,0.1194969937205314,jumping
1761304397778033700,0.2881956100463867,-0.1696796417236328,-0.2745929956436157,0.8379297256469727,0.3839938640594482,0.1592020690441131,jumping
1761304397788170200,-0.0390515923500061,-0.0138921737670898,-0.6391810178756714,0.8330429196357727,0.2434989959001541,0.179360032081604,jumping
1761304397798306600,-0.2632738351821899,0.2272453308105468,-0.5967111587524414,0.8727480173110962,0.0540599822998046,0.1592020690441131,jumping
1761304397808443100,0.2117033004760742,0.6308689117431641,-0.0867303609848022,0.876413106918335,0.040621344000101,0.1127776727080345,jumping
1761304397818579700,0.3182023763656616,0.5747566223144531,0.0970475673675537,0.8018897175788879,0.1023932695388794,0.1023932695388794,jumping
1761304397828716000,0.045034110546112,0.2614545822143554,-0.1827180981636047,0.6778877377510071,0.1457634270191192,0.1091125905513763,jumping
1761304397838852600,-0.193593144416809,0.1282520294189453,-0.5159112215042114,0.6180247068405151,0.0694075226783752,0.1225512325763702,jumping
1761304397848989000,-0.3471852540969848,0.2070150375366211,-0.5826524496078491,0.6730009913444519,-0.1127013191580772,0.1133885234594345,jumping
1761304397859125500,-0.3031109571456909,0.2280216217041015,-0.2315160930156707,0.7450809478759766,-0.2379250079393386,0.1085017472505569,jumping
1761304397869262000,-0.1640805602073669,0.1306591033935547,-0.0611340999603271,0.7786775231361389,-0.2403683960437774,0.0755159929394722,jumping
1761304397879398400,-0.0473778247833251,0.1841487884521484,-0.0155622959136962,0.6931589245796204,-0.1371352076530456,0.0278699062764644,jumping
1761304397889535000,0.1444270014762878,-0.0080375671386718,-0.73304682970047,0.5209000110626221,-0.0424538850784301,-0.0234412644058465,jumping
1761304397899671300,0.3570738434791565,-0.0646600723266601,-1.2990556955337524,0.3449759781360626,0.0473406612873077,-0.0619246400892734,jumping
1761304397909807900,0.5697064399719238,-0.1607551574707031,-1.7650690078735352,0.2179197669029235,0.1207186877727508,-0.1327829211950302,jumping
1761304397919944400,0.905067503452301,-0.0760040283203125,-1.8773406744003296,0.1195733472704887,0.2923667728900909,-0.1963110417127609,jumping
1761304397930080800,1.0027183294296265,-0.2098970413208007,-1.5268285274505615,0.0151184694841504,0.4475219845771789,-0.2427354305982589,jumping
1761304397940217300,1.0828235149383545,-0.3301410675048828,-1.3298615217208862,-0.09605573117733,0.595346987247467,-0.2616716921329498,jumping
1761304397950353700,0.7894775867462158,-0.3257112503051758,-1.3045934438705444,-0.1742441803216934,0.6912500262260437,-0.2708344161510467,jumping
1761304397960490200,0.5241807699203491,-0.1390247344970703,-1.0685384273529053,-0.1950129866600036,0.6839198470115662,-0.2806079685688019,jumping
1761304397970626600,0.3492745161056518,-0.0160379409790039,-0.601513147354126,-0.1705790907144546,0.498222291469574,-0.2854947447776794,jumping
1761304397980763100,-0.0905490517616272,0.0130825042724609,-0.5376303195953369,-0.09605573117733,0.2551050782203674,-0.2781645655632019,jumping
1761304397990899700,-0.3379876613616943,-0.018019676208496,-0.2989982962608337,0.1006370857357978,-0.0534491352736949,-0.2726669311523437,jumping
1761304398001036000,-0.0384568572044372,0.0210371017456054,-0.2323715984821319,0.3779617547988891,-0.400410383939743,-0.3068743944168091,jumping
1761304398011172600,0.1155022382736206,-0.0448884963989257,-0.1241301149129867,0.5013529062271118,-0.6832326650619507,-0.3361950516700744,jumping
1761304398021309000,0.3928706049919128,-0.2118215560913086,-0.727390468120575,0.4811949133872986,-0.698503851890564,-0.3759001195430755,jumping
1761304398031445500,0.7924252152442932,-0.2343940734863281,-0.504062831401825,0.4054498672485351,-0.509141206741333,-0.3862845301628113,jumping
1761304398041581800,0.6531912684440613,-0.1757946014404297,-0.5231063365936279,0.3358132839202881,-0.3674246370792389,-0.3887279331684112,jumping
1761304398051718400,0.5345516800880432,-0.0889358520507812,-0.2182383686304092,0.3089359998703003,-0.2806843221187591,-0.3630723357200622,jumping
1761304398061855000,0.065256655216217,-0.3152999877929687,0.1327129900455474,0.3797942698001861,-0.2275405973196029,-0.3007659316062927,jumping
1761304398071991300,-0.4541043937206268,-0.5625638961791992,0.3868543207645416,0.5154023766517639,-0.2641914486885071,-0.2244100123643875,jumping
1761304398092264200,-0.5195179581642151,-0.6125106811523438,0.8176614046096802,0.7792884111404419,-0.5164713859558105,-0.0930778533220291,jumping
1761304398102400800,-0.2863980531692505,-0.2669229507446289,-0.0811696648597717,0.663838267326355,-0.4865398406982422,-0.0472643077373504,jumping
1761304398112537300,0.1242686510086059,0.2528791427612304,-2.509552240371704,0.135455384850502,0.0253501608967781,0.0229831282049417,jumping
1761304398122673700,0.0505425631999969,0.4900159835815429,-4.054610252380371,-0.1363716572523117,0.0253501608967781,0.0626882016658783,jumping
1761304398132810200,0.9543184638023376,1.0115289688110352,-1.5011757612228394,-0.0838387832045555,-0.0106898266822099,-0.0313822776079177,jumping
1761304398142946600,1.3979804515838623,1.250589370727539,0.6853101849555969,-0.0221432130783796,0.0522274412214756,-0.0942995473742485,jumping
1761304398153083100,0.7372517585754395,0.5458049774169922,-0.0383946597576141,-0.0587940476834774,0.0088572856038808,-0.0949103906750679,jumping
1761304398163219700,-0.0113566815853118,0.0681514739990234,-0.9841537475585938,-0.0942231863737106,-0.0161874517798423,-0.0790283605456352,jumping
1761304398173356000,-0.2799054384231567,-0.1631307601928711,-0.5701507925987244,-0.1052184402942657,-0.0351237170398235,-0.0662005692720413,jumping
1761304398183492600,-0.3816979527473449,-0.3519239425659179,-0.499699980020523,-0.1107160672545433,-0.0424538850784301,-0.0484860017895698,jumping
1761304398203765500,-0.6091068983078003,-0.7301750183105469,-0.7987043261528015,-0.1944021433591842,-0.1279724985361099,0.0975064933300018,jumping
1761304398213901800,-0.5190418362617493,-0.1517047882080078,-0.6049736142158508,-0.2096733152866363,-0.1475196182727813,0.1072800531983375,jumping
1761304398224038400,-0.1228301525115966,0.101409912109375,-0.2988288998603821,-0.2341072112321853,-0.19333316385746,0.1237729266285896,jumping
1761304398234175000,-0.1962185800075531,0.2504310607910156,-0.1759232580661773,-0.1840177327394485,0.3503972589969635,0.1256054639816284,jumping
1761304398244311300,-0.5208807587623596,0.8208208084106445,0.3594817817211151,-0.273201435804367,-0.0717745497822761,0.1585912257432937,jumping
1761304398254447900,-0.518600583076477,-0.028268814086914,-2.142897367477417,-0.1803526580333709,0.2086806893348693,0.1414874941110611,jumping
1761304398264584400,-0.8441210985183716,-0.5776462554931641,1.1234314441680908,-0.1534753739833831,0.171419009566307,0.2404447495937347,jumping
1761304398274720800,-0.9466158151626588,-0.3788490295410156,-0.5676010847091675,-0.1461452096700668,0.1366007179021835,0.3186331987380981,jumping
1761304398284857300,-1.169957160949707,-0.4065618515014648,-0.2206726223230362,-0.1345391124486923,0.1347681730985641,0.4218663871288299,jumping
1761304398294993700,-0.8942382335662842,-0.0304841995239257,-0.3923894762992859,-0.1455343663692474,0.0412321910262107,0.387658953666687,jumping
1761304398305130200,0.2860750555992126,0.7313165664672852,-0.5932020545005798,-0.1369825005531311,0.1060583516955375,0.2679328918457031,jumping
1761304398315266600,1.3286834955215454,0.997075080871582,-0.2312272638082504,-0.1528645306825637,0.1121668294072151,0.1457634270191192,jumping
1761304398325403100,0.9836935997009276,0.8590908050537109,-0.4267357289791107,-0.1638597846031189,0.1268271654844284,0.0920088663697242,jumping
1761304398335539700,0.6042317152023315,0.5061101913452148,-0.3609742224216461,-0.1779092699289322,0.142709195613861,0.0846787020564079,jumping
1761304398345676000,0.4945511817932129,0.1157207489013671,-0.2643430531024933,-0.1705790907144546,0.1646996885538101,0.10178242623806,jumping
1761304398355812600,0.8881370425224304,-0.0032453536987304,0.0671727210283279,-0.1382041871547699,0.2019613683223724,0.0901763290166854,jumping
1761304398365949000,1.1048773527145386,0.1472120285034179,-0.0402954965829849,-0.1290414780378341,0.2263952642679214,0.095063105225563,jumping
1761304398376085500,0.7446529865264893,0.0829610824584961,0.0113515406847,-0.1119377613067627,0.2434989959001541,0.124383769929409,jumping
1761304398386221800,0.2976456880569458,0.0172014236450195,-0.0352861359715461,-0.1186570823192596,0.2154000103473663,0.1659213900566101,jumping
1761304398396358400,0.058517038822174,-0.0050592422485351,-0.3284982740879059,-0.1217113137245178,0.1518719047307968,0.1885227411985397,jumping
1761304398406495000,0.0035400986671447,0.2008781433105468,-0.5149432420730591,-0.149199441075325,0.1072800531983375,0.1701973229646682,jumping
1761304398416631300,0.3007981777191162,0.3076972961425781,-0.3939167261123657,-0.1534753739833831,0.1060583516955375,0.1445417255163192,jumping
1761304398426768000,0.0836749076843261,-0.1043806076049804,-0.0486823394894599,-0.1345391124486923,0.1158319115638732,0.1335464864969253,jumping
1761304398436904400,-0.0977945923805236,-0.3970613479614258,0.1520254760980606,-0.1046075895428657,0.1078908964991569,0.1256054639816284,jumping
1761304398447040800,-0.2626927495002746,-0.5714731216430664,-0.1843630373477935,-0.0923906490206718,0.0749051421880722,0.0907871723175048,jumping
1761304398457177300,-0.0573852062225341,-0.5074710845947266,-0.4245458245277405,-0.0844496339559555,0.0400104969739913,0.0352000743150711,jumping
1761304398467313700,-0.0657804608345031,-0.3967952728271484,-0.3295424282550812,-0.0795628577470779,0.0131332157179713,-0.0069483877159655,jumping
1761304398477450200,-0.0710740089416503,-0.2943143844604492,-0.2218313217163086,-0.0881147161126136,0.0161874517798423,-0.0381015986204147,jumping
1761304398487586600,-0.1708678603172302,-0.2213296890258789,-0.1330003440380096,-0.1027750521898269,0.0204633828252553,-0.0680331140756607,jumping
1761304398497723100,-0.0426413416862487,-0.0776453018188476,-0.1602658033370971,-0.1168245375156402,0.019241688773036,-0.0833042934536933,jumping
1761304398507859700,-0.1042097806930542,0.0554542541503906,-0.2217917442321777,-0.1296523362398147,0.0088572856038808,-0.0967429354786872,jumping
1761304398517996000,0.0498512387275695,0.1733074188232422,-0.3624127209186554,-0.1412584334611892,-0.0003054236294701,-0.1095707267522811,jumping
1761304398528132600,-0.062754213809967,0.157414436340332,-0.3750090599060058,-0.1534753739833831,0.0143549107015132,-0.0918561592698097,jumping
1761304398538269000,-0.1663812398910522,0.0514345169067382,-0.2714478075504303,-0.1553079187870025,0.0430647321045398,-0.0778066664934158,jumping
1761304398548405500,0.0405811071395874,0.0462007522583007,-0.1112626194953918,-0.150421142578125,0.0681858286261558,-0.060702946037054,jumping
1761304398558542000,0.0266834497451782,0.0458345413208007,-0.3774332702159881,-0.1443126648664474,0.095063105225563,-0.0527619309723377,jumping
1761304398568678400,0.2227294445037841,0.0311527252197265,-0.0963519215583801,-0.1357607990503311,0.0859003961086273,-0.0588704049587249,jumping
1761304398578815000,0.3451729416847229,0.0973758697509765,-0.3631670773029327,-0.1528645306825637,0.0558925233781337,-0.0741415843367576,jumping
1761304398588951300,0.3092708587646484,0.0703029632568359,-0.5429555773735046,-0.1565296053886413,0.0540599822998046,-0.0924670025706291,jumping
1761304398599087900,0.3301772475242615,-0.1610136032104492,-0.3900321424007416,-0.1754658818244934,-0.0003054236294701,-0.0888019204139709,jumping
1761304398609224400,0.1487326025962829,-0.2668256759643554,-0.6973896026611328,-0.2005106061697006,0.0198525357991457,-0.0631463378667831,jumping
1761304398619360800,0.2234919667243957,-0.3074932098388672,-0.2553718686103821,-0.2170034945011139,0.0491732060909271,-0.0429883748292923,jumping
1761304398629497300,0.1617171764373779,-0.4473991394042969,-0.1551829576492309,-0.2512109279632568,0.0804027691483497,-0.0124460132792592,jumping
1761304398639633700,0.032932698726654,-0.550480842590332,-0.3158306777477264,-0.2848075330257416,0.0822353139519691,-0.0038941511884331,jumping
1761304398649770200,0.297203779220581,-0.4269447326660156,-0.6271680593490601,-0.3049654960632324,0.0669641271233558,-0.0258846525102853,jumping
1761304398659906800,0.5392840504646301,-0.449310302734375,-0.6153973340988159,-0.305576354265213,0.0601684562861919,-0.0350473597645759,jumping
1761304398670043100,0.377086341381073,-0.5642127990722656,-0.4915906190872192,-0.3037438094615936,0.0436755791306495,-0.0283280424773693,jumping
1761304398680179700,0.236558735370636,-0.6709918975830078,-0.5282769799232483,-0.3324536085128784,0.0302369389683008,-0.0209978744387626,jumping
1761304398690316000,0.3145650625228882,-0.641352653503418,-0.605577826499939,-0.3617742955684662,0.0198525357991457,-0.0332148186862468,jumping
1761304398700452600,0.4174160361289978,-0.6781902313232422,-0.5090846419334412,-0.3904841244220733,0.0143549107015132,-0.0246629584580659,jumping
1761304398710589200,0.2975499033927917,-0.9593734741210938,-0.50339674949646,-0.4112529158592224,0.0351237170398235,0.009544488042593,jumping
1761304398720725500,0.2326710820198059,-1.238398551940918,-0.4514939785003662,-0.4240806996822357,0.0491732060909271,0.0400868505239486,jumping
1761304398730862000,0.4021413922309875,-1.377537727355957,-0.5442101955413818,-0.4399627447128296,0.0510057471692562,0.032756682485342,jumping
1761304398740998400,0.4585523009300232,-1.6156730651855469,-0.7121910452842712,-0.4619532525539398,0.0448972731828689,0.0101553360000252,jumping
1761304398751135000,0.3629913926124573,-2.0283236503601074,-0.7420946359634399,-0.4717268049716949,0.0503949001431465,0.0040468629449605,jumping
1761304398761271300,0.1182308197021484,-2.3525776863098145,-0.6497425436973572,-0.4906630516052246,0.0369562581181526,0.0016034740256145,jumping
1761304398771408000,0.0229424834251403,-2.5842204093933105,-0.6833754181861877,-0.5095993280410767,0.0271827038377523,-0.0038941511884331,jumping
1761304398781544400,-0.0241331458091735,-2.8475799560546875,-0.7034854292869568,-0.51998370885849,0.0314586348831653,-0.0038941511884331,jumping
1761304398791680800,-0.1495091915130615,-3.137890338897705,-0.8130607604980469,-0.5138752460479736,0.0082464376464486,-0.0057266931980848,jumping
1761304398801817300,-0.1592180728912353,-3.442868709564209,-0.9074833989143372,-0.5383091568946838,-0.0045813545584678,-0.0142785543575882,jumping
1761304398811954000,-0.1488910913467407,-3.705567359924317,-0.8780400156974792,-0.51998370885849,-0.0131332157179713,-0.0002290677221026,jumping
1761304398822090200,-0.4467037916183471,-4.09784460067749,-0.5456125140190125,-0.4900522232055664,-0.046729814261198,0.0064902519807219,jumping
1761304398832226800,-0.5310855507850647,-4.1429314613342285,-0.5076553821563721,-0.4668400287628174,-0.0809372588992118,0.0034360159188508,jumping
1761304398842363100,-0.5567285418510437,-4.052348613739014,-0.2870364189147949,-0.4497362971305847,-0.109036237001419,-0.0124460132792592,jumping
1761304398852499700,-0.4619786739349365,-3.921885013580322,-0.1443949937820434,-0.4320217370986938,-0.1139230132102966,-0.0014507622690871,jumping
1761304398862636000,-0.3942188620567322,-3.6112875938415527,-0.2895694971084595,-0.4216373264789581,-0.1078145429491996,0.0016034740256145,jumping
1761304398872772600,-0.1496092677116394,-3.195284843444824,-0.4589841365814209,-0.4088095426559448,-0.0864348858594894,0.018096350133419,jumping
1761304398882909200,-0.2064027786254882,-2.7174086570739746,-0.3868714570999145,-0.381932258605957,-0.0742179453372955,0.0455844774842262,jumping
1761304398893045500,-0.3590186834335327,-2.1279749870300293,-0.3265789747238159,-0.3513898849487304,-0.0662769302725792,0.0816244632005691,jumping
1761304398903182000,-0.4355489611625671,-1.3467011451721191,-0.208498477935791,-0.3177932798862457,-0.0870457366108894,0.1139993667602539,jumping
1761304398913318700,-0.3115875124931335,-0.5818986892700195,-0.17783784866333,-0.2793098986148834,-0.0962084457278251,0.1372115612030029,jumping
1761304398923455000,-0.1196314096450805,-0.0072908401489257,-0.08512544631958,-0.2512109279632568,-0.1017060652375221,0.1402658075094223,jumping
1761304398933591600,0.2957633137702942,0.4972171783447265,0.052130103111267,-0.2273878902196884,-0.0949867516756057,0.1341573297977447,jumping
1761304398943727900,0.4645293354988098,0.8486299514770508,0.1933488845825195,-0.20356485247612,-0.1047603040933609,0.1231620758771896,jumping
1761304398953864400,0.3983831405639648,1.1264028549194336,0.401019811630249,-0.173633337020874,-0.1169772520661354,0.1280488520860672,jumping
1761304398964001000,0.2387454509735107,1.319061279296875,0.600946307182312,-0.1443126648664474,-0.1316375881433487,0.1359898746013641,jumping
1761304398974137300,0.2220851778984069,1.650914192199707,0.645389199256897,-0.1162136942148208,-0.1426328420639038,0.1420983374118805,jumping
1761304398984274000,0.2197278141975402,1.9734468460083008,0.7213525772094727,-0.0832279399037361,-0.1499630063772201,0.1414874941110611,jumping
1761304398994410200,0.1146553754806518,2.3512163162231445,0.7562096118927002,-0.0624591335654258,-0.1695101112127304,0.1414874941110611,jumping
1761304399004546800,0.0578258037567138,2.7623167037963867,0.8511613607406616,-0.0300842281430959,-0.1750077456235885,0.1396549493074417,jumping
1761304399014683400,0.2178865671157837,3.256712913513184,0.8339179754257202,-0.0025961007922887,-0.1750077456235885,0.1408766508102417,jumping
1761304399024819700,0.3931535482406616,3.910162925720215,0.8652993440628052,0.0346655808389186,-0.1487413048744201,0.1518719047307968,jumping
1761304399034956300,0.4692556858062744,4.445652961730957,0.8423181772232056,0.0670404881238937,-0.1353026628494262,0.1604237556457519,jumping
1761304399045092600,0.4838293790817261,4.971088409423828,0.5486650466918945,0.1018587797880172,-0.1145338639616966,0.1805817186832428,jumping
1761304399055229200,0.2998557090759277,5.243391990661621,0.5295438766479492,0.1452289372682571,-0.0882674306631088,0.1927986592054367,jumping
1761304399065365800,0.1801848411560058,5.453874588012695,0.4758685827255249,0.2081461995840072,-0.0711637064814567,0.1799708753824234,jumping
1761304399075502000,0.0670894384384155,5.485721588134766,0.5963103771209717,0.2845021188259125,-0.0497840531170368,0.1451525837182998,jumping
1761304399085638700,-0.1045096516609191,5.490128517150879,0.716017484664917,0.3364241421222687,-0.0113006746396422,0.0956739485263824,jumping
1761304399095775000,-0.2239145040512085,5.531955718994141,0.5698463916778564,0.3541387021541595,0.0155766047537326,0.0358109213411808,jumping
1761304399105911600,-0.2838038802146911,5.875694274902344,0.4335095882415771,0.3510844707489013,0.0387887991964817,-0.028938889503479,jumping
1761304399116048100,-0.2539780139923095,6.364896774291992,0.2940117120742798,0.3602471649646759,0.046729814261198,-0.0906344652175903,jumping
1761304399126184400,-0.1116795539855957,6.879903793334961,0.4298018217086792,0.3694098889827728,0.0840678513050079,-0.1413347870111465,jumping
1761304399136321000,-0.0957307815551757,7.349489212036133,0.634296178817749,0.372464120388031,0.1023932695388794,-0.1694337576627731,jumping
1761304399146457300,0.1562223434448242,7.929092407226562,0.2994337081909179,0.3712424337863922,0.1023932695388794,-0.1712663024663925,jumping
1761304399156594000,0.3361896276473999,8.453784942626953,0.1444345712661743,0.39323291182518,0.1420983374118805,-0.1486649513244629,jumping
1761304399166730500,0.6169145107269287,8.751839637756348,0.8698447942733765,0.4433223903179168,0.1311030983924865,-0.1413347870111465,jumping
1761304399176866800,0.6684911251068115,9.17487907409668,0.9713170528411864,0.474475622177124,0.0865112394094467,-0.1315612345933914,jumping
1761304399187003400,0.5378010869026184,9.212443351745604,0.3394731283187866,0.5233433842658997,0.019241688773036,-0.105294793844223,jumping
1761304399197139700,0.8838209509849548,8.990100860595703,-0.0457275509834289,0.5899257659912109,-0.0638335421681404,-0.0851368382573127,jumping
1761304399207276300,0.9515214562416076,8.65234661102295,0.1843827366828918,0.6412369012832642,-0.1072036921977996,-0.0619246400892734,jumping
1761304399217412900,1.101860523223877,8.89150333404541,0.4878383874893188,0.5770979523658752,-0.0638335421681404,-0.075974129140377,jumping
1761304399227549200,0.9806246757507324,9.182802200317385,1.08978009223938,0.4598152637481689,0.0021379655227065,-0.1474432498216629,jumping
1761304399237685800,1.3473483324050903,9.575028419494627,1.8624684810638428,0.3840702176094055,0.0113006746396422,-0.2751103341579437,jumping
1761304399247822000,1.7426724433898926,9.976629257202148,2.275866270065308,0.3950654566287994,-0.0284043978899717,-0.3862845301628113,jumping
1761304399257958700,2.27756142616272,10.247232437133787,2.1029727458953857,0.4506525695323944,-0.0992626771330833,-0.443093329668045,jumping
1761304399268095200,2.370277404785156,10.06886386871338,1.393145203590393,0.497687816619873,-0.1560714691877365,-0.4320980906486511,jumping
1761304399278231600,2.01477599143982,9.691682815551758,1.293856859207153,0.5557183027267456,-0.2098260372877121,-0.3887279331684112,jumping
1761304399288368000,1.674459457397461,9.035760879516602,1.3236415386199951,0.5758762359619141,-0.2031067162752151,-0.3551313281059265,jumping
1761304399298504400,1.3624248504638672,7.730446815490723,1.3510537147521973,0.6009209752082825,-0.1579040139913559,-0.3319191336631775,jumping
1761304399308641000,1.0444161891937256,5.516282081604004,1.2990636825561523,0.6400152444839478,-0.1285833418369293,-0.3258106708526611,jumping
1761304399318777600,0.8864187002182007,2.81672477722168,0.7485342025756836,0.6326850652694702,-0.1206423342227935,-0.3581855595111847,jumping
1761304399328914000,1.001979947090149,-0.3422470092773437,-0.0513851642608642,0.5728220343589783,-0.1065928488969802,-0.4119401276111603,jumping
1761304399339050500,0.6727244853973389,-4.042252063751221,-0.4418697357177734,0.4903576374053955,-0.0955975949764251,-0.4913502633571625,jumping
1761304399349186800,0.2704567313194275,-7.739838123321533,-0.3290002048015594,0.3914003670215606,-0.0577250644564628,-0.5524349808692932,jumping
1761304399359323400,-0.4163530766963959,-10.972390174865724,-0.4567556977272033,0.2655658423900604,-0.0119115216657519,-0.5499916076660156,jumping
1761304399369460000,-1.487917184829712,-13.138965606689451,-0.5904988050460815,0.1812689304351806,-0.0271827038377523,-0.491961121559143,jumping
1761304399379596300,-2.158527374267578,-14.446928024291992,-0.992953360080719,0.0914743766188621,-0.0369562581181526,-0.4094967246055603,jumping
1761304399389732900,-2.284054517745972,-14.700071334838867,-1.3597187995910645,0.0059557608328759,-0.0418430380523204,-0.3539096415042877,jumping
1761304399399869400,-1.6321299076080322,-14.0938081741333,-1.363050937652588,-0.066735066473484,-0.0186308417469263,-0.3080960810184479,jumping
1761304399410005800,-1.3515472412109375,-13.25881290435791,-0.8743302822113037,-0.1485885977745056,0.0363454110920429,-0.2720561027526855,jumping
1761304399420142300,-1.2540549039840698,-12.119820594787598,-0.7490903735160828,-0.2084516286849975,0.0999498814344406,-0.2421245872974395,jumping
1761304399430278700,-1.190988540649414,-10.999889373779297,-0.3666312396526336,-0.2530434727668762,0.1280488520860672,-0.1895917207002639,jumping
1761304399440415200,-1.1730449199676514,-10.952536582946776,-0.3962801098823547,-0.3061871826648712,0.1194969937205314,-0.1242310628294944,jumping
1761304399450551800,-1.1273870468139648,-9.539286613464355,-0.2946377992630005,-0.3306210935115814,0.1378224194049835,-0.0686439573764801,jumping
1761304399460688100,-0.4883049130439758,-9.22859001159668,-0.1403190195560455,-0.3489464819431305,0.1592020690441131,-0.0442100688815116,jumping
1761304399470824700,0.0344342142343521,-9.064568519592283,-0.1146262288093566,-0.3666610717773437,0.1616454571485519,-0.0277171935886144,jumping
1761304399480961000,0.1409037858247757,-9.194388389587402,-0.0503481328487396,-0.3868190348148346,0.1500393599271774,-0.0112243182957172,jumping
1761304399491097600,0.1802300065755844,-9.583433151245115,-0.0497312545776367,-0.4027010500431061,0.1439308822154998,0.0125987250357866,jumping
1761304399501234200,-0.060954213142395,-9.968420028686523,0.0011956691741943,-0.4020902216434479,0.1323247849941253,0.0510821007192134,jumping
1761304399511370500,-0.1923785209655761,-10.263469696044922,0.0959862470626831,-0.4161396920681,0.1414874941110611,0.0859003961086273,jumping
1761304399521507000,-0.0207392275333404,-10.411934852600098,0.2181317806243896,-0.4020902216434479,0.1604237556457519,0.0907871723175048,jumping
1761304399531643400,0.1470730304718017,-10.362105369567873,0.3251592516899109,-0.3581092059612274,0.1573695242404937,0.1237729266285896,jumping
1761304399541780000,-0.1840823143720626,-10.38656234741211,0.2329115867614746,-0.3202366828918457,0.149428516626358,0.1732515543699264,jumping
1761304399551916500,-0.1175638064742088,-10.017873764038086,0.0750026702880859,-0.2652604281902313,0.1170536056160926,0.1915769726037979,jumping
1761304399562052900,-0.0256359726190567,-9.574660301208496,-0.0709153413772583,-0.2231119573116302,0.0920088663697242,0.2215084880590438,jumping
1761304399572189400,-0.1116694062948226,-9.297953605651855,-0.4571748971939087,-0.2005106061697006,0.071850910782814,0.2331145852804184,jumping
1761304399582325800,-0.0273397564888,-9.10113525390625,-0.6667380928993225,-0.1901262104511261,0.0601684562861919,0.2508291602134704,jumping
1761304399592462300,-0.0957047790288925,-9.0432767868042,-0.7885732650756836,-0.2041756957769394,0.0779593810439109,0.2758738994598388,jumping
1761304399602599000,-0.0319498181343078,-9.056877136230469,-0.8179535865783691,-0.2396048307418823,0.1127776727080345,0.2978644073009491,jumping
1761304399622871800,-0.4151530563831329,-9.260868072509766,-0.7838848233222961,-0.3440597057342529,0.1384332627058029,0.3436779379844665,jumping
1761304399633008000,-0.5983265042304993,-9.150308609008787,-0.5817599296569824,-0.3917058110237121,0.1335464864969253,0.3833830058574676,jumping
1761304399643144700,-1.0331683158874512,-8.242670059204102,0.1088906526565551,-0.4686725735664367,0.0638335421681404,0.4261423051357269,jumping
1761304399653281300,-1.2511515617370603,-5.717607498168945,0.3676486611366272,-0.603058934211731,-0.0113006746396422,0.4664582312107086,jumping
1761304399663417600,-0.6951272487640381,-3.0367536544799805,0.0643599033355712,-0.6372663974761963,-0.0021379655227065,0.5153260231018066,jumping
1761304399673554200,0.3163598179817199,-0.2589588165283203,0.647291898727417,-0.5798467397689819,0.0589467622339725,0.526321291923523,jumping
1761304399683690500,1.3946189880371094,2.6048383712768555,0.7344894409179688,-0.4705050885677337,0.1133885234594345,0.4652365446090698,jumping
1761304399693827000,2.223097801208496,5.086889266967773,0.7672709226608276,-0.3788780272006988,0.1763057857751846,0.3955999612808227,jumping
1761304399703963600,2.57642126083374,6.491080284118652,1.3380799293518066,-0.381932258605957,0.2392230629920959,0.3497864007949829,jumping
1761304399714100000,2.1779139041900635,6.635476112365723,1.6552963256835938,-0.3910949528217315,0.2410555928945541,0.2905342280864715,jumping
1761304399724236500,1.375236749649048,5.47474479675293,1.8460171222686768,-0.381932258605957,0.1909661293029785,0.2612135708332062,jumping
1761304399734372900,0.3841754794120788,4.166219711303711,1.1706005334854126,-0.4057552814483642,0.1610346138477325,0.2386122047901153,jumping
1761304399744509400,0.65483558177948,3.5179872512817383,1.1036466360092163,-0.362995982170105,0.0436755791306495,0.2105132341384887,jumping
1761304399754646000,0.1553155183792114,3.542677879333496,0.767877459526062,-0.3709369897842407,-0.0968192890286445,0.2019613683223724,jumping
1761304399764782300,-0.0768972039222717,4.478376388549805,0.1483074426651001,-0.362995982170105,-0.144465371966362,0.1866901963949203,jumping
1761304399774919000,0.3776601552963257,5.8947296142578125,0.5502740144729614,-0.3501681983470917,-0.0974301397800445,0.1787491738796234,jumping
1761304399785055500,1.287738800048828,7.321861267089844,1.1635873317718506,-0.3092414140701294,-0.0070247435942292,0.149428516626358,jumping
1761304399795191800,1.2762831449508667,8.537991523742676,1.5961886644363403,-0.2994678616523742,0.0369562581181526,0.0779593810439109,jumping
1761304399805328400,1.0599706172943115,9.262587547302246,1.7357754707336426,-0.2976353168487549,0.0932305604219436,0.0083227939903736,jumping
1761304399815464700,0.701657772064209,9.5258150100708,1.6637502908706665,-0.279920756816864,0.1359898746013641,-0.0637571811676025,jumping
1761304399825601300,0.2064161300659179,9.353360176086426,1.6153565645217896,-0.2560977041721344,0.1665322333574295,-0.1095707267522811,jumping
1761304399835737600,-0.0769838094711303,8.94700813293457,1.6166478395462036,-0.2139492481946945,0.1390441060066223,-0.1401130855083465,jumping
1761304399845874200,-0.6014951467514038,8.202678680419922,1.4543896913528442,-0.1565296053886413,0.0932305604219436,-0.1346154659986496,jumping
1761304399856010800,-0.7952288389205933,7.273895263671875,1.093511700630188,-0.0716218426823616,0.0613901503384113,-0.1114032715559005,jumping
1761304399866147000,-0.3257359266281128,6.423300743103027,0.569109320640564,0.0499367639422416,0.046729814261198,-0.0570378638803958,jumping
1761304399876283600,0.1308384537696838,5.88197135925293,0.228309154510498,0.1794363856315612,0.0503949001431465,0.0113770300522446,jumping
1761304399886420200,0.6567685008049011,6.018853187561035,0.1591144800186157,0.2887780368328094,0.0669641271233558,0.0700183659791946,jumping
1761304399896556500,1.029386043548584,6.428933143615723,0.2113819122314453,0.3590254783630371,0.0785702317953109,0.1085017472505569,jumping
1761304399906693000,1.4733855724334717,6.851058006286621,0.3955012559890747,0.4176668226718902,0.0938414111733436,0.0987281873822212,jumping
1761304399916829400,1.8467376232147217,7.273096084594727,0.7160888910293579,0.4518742561340332,0.0828461572527885,0.0211505871266126,jumping
1761304399926966000,1.9928534030914309,7.642665863037109,0.9176803827285768,0.4622586667537689,0.0546708293259143,-0.0894127711653709,jumping
1761304399937102300,1.6130459308624268,7.628745079040527,1.08026385307312,0.4549284875392914,0.0094681326299905,-0.188370019197464,jumping
1761304399947239000,1.2333784103393557,7.514698028564453,0.8662351369857788,0.4347705245018005,-0.0247393138706684,-0.2537306845188141,jumping
1761304399957375500,1.138273000717163,7.336716651916504,0.5488330125808716,0.4402681589126587,-0.0424538850784301,-0.2726669311523437,jumping
1761304399967511800,0.9945244193077089,7.059574127197266,0.4524084329605102,0.4414898455142975,-0.0558925233781337,-0.260450005531311,jumping
1761304399977648400,0.6407840847969055,6.993795394897461,-0.0863187313079834,0.4500417113304138,-0.0723854005336761,-0.2317401766777038,jumping
1761304399987785000,0.2363809943199157,6.826336860656738,0.2358165979385376,0.4494308829307556,-0.0766613334417343,-0.1889808773994445,jumping
1761304399997921300,-0.0504140853881835,6.803187370300293,0.3850393295288086,0.4469874799251556,-0.0882674306631088,-0.158438503742218,jumping
1761304400008057900,0.0191505551338195,6.976128578186035,0.396639347076416,0.4585935771465301,-0.0864348858594894,-0.1321720778942108,jumping
1761304400018194200,0.0528551936149597,6.981544494628906,0.681510329246521,0.495244413614273,-0.0742179453372955,-0.1077381819486618,jumping
1761304400028330800,0.1365282535552978,7.180403709411621,1.1832506656646729,0.5257867574691772,-0.0601684562861919,-0.0814717561006546,jumping
1761304400038467300,0.1501514911651611,7.450601577758789,1.0119495391845703,0.5398362874984741,-0.0491732060909271,-0.0503185428678989,jumping
1761304400048603600,0.6869314908981323,7.960643768310547,0.5937580466270447,0.6149705052375793,-0.0589467622339725,-0.0338256657123565,jumping
1761304400058740200,1.0514986515045166,8.12730598449707,0.639144778251648,0.746913492679596,-0.0632226914167404,-0.0002290677221026,jumping
1761304400068876800,1.1938093900680542,8.260061264038086,0.8414720892906189,0.8574768304824829,-0.0699420124292373,0.0382543094456195,jumping
1761304400079013000,1.296626329421997,8.435876846313477,0.7857869267463684,0.8819107413291931,-0.0626118406653404,0.0242048222571611,jumping
1761304400089149700,1.330265998840332,8.413728713989258,0.8351538777351379,0.8544226288795471,-0.0601684562861919,-0.0252738054841756,jumping
1761304400099286000,1.333279371261597,8.380261421203613,0.9187126159667968,0.8367080092430115,-0.0705528557300567,-0.0765849724411964,jumping
1761304400109422600,0.659594714641571,6.247795104980469,0.9443870782852172,0.8073873519897461,-0.0711637064814567,-0.1083490327000618,jumping
1761304400119559000,0.3316753506660461,4.588282585144043,0.9150225520133972,0.7585195899009705,-0.0693311616778373,-0.152940884232521,jumping
1761304400129695500,0.0531956553459167,2.9681177139282227,0.753332793712616,0.6998782753944397,-0.0638335421681404,-0.2042520493268966,jumping
1761304400139832000,-0.1378532648086547,1.0315523147583008,0.5695353746414185,0.6186355352401733,-0.0632226914167404,-0.2555632293224334,jumping
1761304400149968400,-0.2917264103889465,-1.3896121978759766,0.189655065536499,0.5166240930557251,-0.0595576092600822,-0.2622825503349304,jumping
1761304400160105000,-0.6802237033843994,-4.031383991241455,-0.2329932153224945,0.4133908748626709,-0.0766613334417343,-0.2500655949115753,jumping
1761304400170241500,-0.7670630216598511,-6.578161239624023,-0.3263664245605469,0.3077143132686615,-0.0833806544542312,-0.2244100123643875,jumping
1761304400180377900,-0.9574633240699768,-8.922991752624512,-0.5688134431838989,0.2026485800743103,-0.0766613334417343,-0.1895917207002639,jumping
1761304400190514400,-1.1214855909347534,-10.629886627197266,-0.7341934442520142,0.1104106456041336,-0.0674986243247985,-0.1388913989067077,jumping
1761304400200650800,-1.1096103191375732,-10.596075057983398,-0.7280892729759216,0.0334438867866992,-0.0540599822998046,-0.0808609053492546,jumping
1761304400210787300,-1.1432607173919678,-12.316291809082031,-0.8157186508178711,-0.0423011742532253,-0.0479515083134174,-0.0564270168542861,jumping
1761304400220923600,-0.5088199973106384,-12.14340591430664,-0.6955773234367371,-0.089947260916233,-0.038177952170372,-0.0545944720506668,jumping
1761304400231060200,-0.4956266283988952,-12.011664390563965,-0.5964434742927551,-0.1278197914361953,-0.019241688773036,-0.0435992218554019,jumping
1761304400241196800,-0.7108588218688965,-11.684629440307615,-0.5447408556938171,-0.1681357026100158,0.0045813545584678,-0.0271063465625047,jumping
1761304400251333000,-0.9130415916442872,-11.244160652160645,-0.4078277051448822,-0.196845531463623,0.0222959257662296,-0.0313822776079177,jumping
1761304400261469700,-0.991088569164276,-10.61191463470459,-0.2590067386627197,-0.2163926362991333,0.0387887991964817,-0.0490968488156795,jumping
1761304400271606000,-1.1277246475219729,-10.02467155456543,-0.1850200593471527,-0.2451024651527404,0.0332911759614944,-0.0576487109065055,jumping
1761304400281742600,-1.0204899311065674,-9.472810745239258,-0.1223911121487617,-0.2622061967849731,0.0241284668445587,-0.082082599401474,jumping
1761304400291879200,-0.9729963541030884,-9.173406600952148,-0.0197995156049728,-0.2670929729938507,0.0259610079228878,-0.1089598834514617,jumping
1761304400302015500,-0.8288302421569824,-9.07788372039795,0.1786258667707443,-0.2609844803810119,0.0253501608967781,-0.123009368777275,jumping
1761304400312152000,-0.8501871824264526,-9.18792724609375,0.1748507916927337,-0.248767539858818,0.0265718549489974,-0.1193442866206169,jumping
1761304400322288400,-0.9714621305465698,-9.543447494506836,0.2310424447059631,-0.2212794125080108,0.0516165941953659,-0.0973537787795066,jumping
1761304400332425000,-1.057538986206055,-10.021949768066406,0.6980936527252197,-0.1895153671503067,0.1176644563674926,-0.0613137930631637,jumping
1761304400342561500,-1.0610504150390625,-10.45588207244873,1.0317271947860718,-0.1986780762672424,0.0907871723175048,-0.0252738054841756,jumping
1761304400352697900,-0.980588674545288,-10.437403678894045,0.1126981377601623,-0.1858502775430679,0.0749051421880722,-0.0057266931980848,jumping
1761304400362834400,-0.6828070878982544,-10.552550315856934,0.2381312549114227,-0.1754658818244934,0.0883437842130661,0.0400868505239486,jumping
1761304400372970800,-0.6726893186569214,-10.788865089416504,0.1472324430942535,-0.1876828223466873,0.0913980230689048,0.0932305604219436,jumping
1761304400383107300,-0.5645402669906616,-10.60653018951416,-0.0742663741111755,-0.2090624719858169,0.0877329409122467,0.1408766508102417,jumping
1761304400393244000,-0.1827691793441772,-10.171467781066896,-0.3681418597698211,-0.2493783980607986,0.0907871723175048,0.1720298528671264,jumping
1761304400403380200,-0.0055576860904693,-9.92840576171875,-0.5061666965484619,-0.2762556672096252,0.1036149635910987,0.2037939131259918,jumping
1761304400413516800,0.0157845020294189,-9.814627647399902,-0.5064609050750732,-0.2878617644309997,0.1201078444719314,0.2575484812259674,jumping
1761304400423653000,-0.0361145436763763,-9.643485069274902,-0.4353718161582947,-0.3153499066829681,0.1304922401905059,0.3009186387062073,jumping
1761304400433789700,-0.0493105351924896,-9.224238395690918,-0.4173117280006408,-0.3672719001770019,0.1701973229646682,0.3009186387062073,jumping
1761304400443926300,-0.3261988461017608,-8.132723808288574,0.0012102127075195,-0.4491254389286041,0.1665322333574295,0.2642678022384643,jumping
1761304400454062600,-0.8383484482765198,-6.609218597412109,0.2880252003669739,-0.5938962697982788,0.1573695242404937,0.2123457789421081,jumping
1761304400464199200,-0.7360090613365173,-4.862555980682373,-0.1847376823425293,-0.6940752267837524,0.1451525837182998,0.1927986592054367,jumping
1761304400474335500,-0.3523379862308502,-2.831458568572998,-0.3161720633506775,-0.7343910932540894,0.1683647781610489,0.1964637488126754,jumping
1761304400484472000,0.1337491869926452,-0.4980430603027344,0.1383975148200988,-0.7215633392333984,0.2459423840045929,0.1952420622110366,jumping
1761304400494608600,1.0025441646575928,1.9098501205444336,0.8872071504592896,-0.6952968835830688,0.3247416615486145,0.1811925619840622,jumping
1761304400504745000,1.3834114074707031,3.662119865417481,1.050161600112915,-0.705070436000824,0.364446759223938,0.1964637488126754,jumping
1761304400514881500,1.1046507358551023,4.789241790771484,0.7592273950576782,-0.6806365847587585,0.3180223405361175,0.2416664510965347,jumping
1761304400525017900,0.3049640655517578,5.271419525146484,0.9415997266769408,-0.6366555690765381,0.2367796748876571,0.2996969223022461,jumping
1761304400535154400,-0.1669802665710449,5.504227638244629,0.9081943035125732,-0.594507098197937,0.1665322333574295,0.3351260721683502,jumping
1761304400545291000,0.2297146916389465,5.972650527954102,0.5609093904495239,-0.5578562617301941,0.1457634270191192,0.3253525197505951,jumping
1761304400555427300,0.8760229349136353,6.553970336914063,-0.1250785589218139,-0.5132644176483154,0.1530935913324356,0.3003077805042267,jumping
1761304400565564000,1.5026848316192627,6.9925537109375,-0.3474194407463074,-0.4711159467697143,0.2178433984518051,0.2960318624973297,jumping
1761304400575700200,1.4876688718795776,7.255146026611328,0.0045511722564697,-0.4069769978523254,0.2636569440364837,0.304583728313446,jumping
1761304400585836800,0.914174258708954,7.595556259155273,0.9723100662231444,-0.3721587061882019,0.2483857721090316,0.302140325307846,jumping
1761304400595973400,0.4836539626121521,8.113548278808594,1.5092421770095823,-0.3568875193595886,0.2135674655437469,0.2416664510965347,jumping
1761304400606109700,0.4141584038734436,8.443236351013184,2.4695141315460205,-0.3623851239681244,0.154926136136055,0.1390441060066223,jumping
1761304400616246300,0.6689760684967041,8.552162170410156,2.4001123905181885,-0.3947600424289703,0.1201078444719314,0.0388651564717292,jumping
1761304400626382800,1.2690330743789673,8.318586349487305,1.7706921100616455,-0.3855973184108734,0.1219403818249702,-0.0588704049587249,jumping
1761304400636519200,1.9366204738616943,7.700389862060547,1.2473121881484983,-0.3434488773345947,0.118275299668312,-0.1089598834514617,jumping
1761304400646655700,1.8139941692352293,6.908810615539551,1.0420080423355105,-0.2811424434185028,0.0797919258475303,-0.1095707267522811,jumping
1761304400656792000,1.2205077409744265,6.028341293334961,1.0187610387802124,-0.2347180545330047,0.0339020229876041,-0.0826934501528739,jumping
1761304400666928600,0.854250431060791,5.230969429016113,0.9486076831817628,-0.1785201132297516,0.0113006746396422,-0.0484860017895698,jumping
1761304400677065000,0.5996240973472595,4.416146278381348,0.669516921043396,-0.119267925620079,0.0027488125488162,-0.0081700822338461,jumping
1761304400687201500,0.2082859277725219,3.827181816101074,0.4051518440246582,-0.050853032618761,-0.023517619818449,0.0260373651981353,jumping
1761304400697338000,-0.1935535073280334,3.639892578125,0.4087932109832763,0.0187835525721311,-0.0632226914167404,0.0400868505239486,jumping
1761304400707474400,-0.4450848400592804,3.836484909057617,0.5692659616470337,0.0835333615541458,-0.08582404255867,0.0486387126147747,jumping
1761304400717611000,-0.3299096226692199,4.415797233581543,0.3820103406906128,0.1452289372682571,-0.0980409830808639,0.0388651564717292,jumping
1761304400727747600,0.2721423506736755,5.192719459533691,0.0155611038208007,0.2142546772956848,-0.0809372588992118,0.0156529601663351,jumping
1761304400737884000,0.6154012084007263,5.897096633911133,-0.1199368238449096,0.2735068500041961,-0.055281676352024,-0.0118351653218269,jumping
1761304400748020500,0.827324390411377,6.496192932128906,-0.2282717227935791,0.3046600818634033,-0.0387887991964817,-0.0429883748292923,jumping
1761304400758156800,0.968520998954773,6.921245574951172,-0.4502023458480835,0.3364241421222687,-0.0332911759614944,-0.0570378638803958,jumping
1761304400768293400,1.1653536558151243,7.165709495544434,-0.3168522119522095,0.349251925945282,-0.032069481909275,-0.0924670025706291,jumping
1761304400778429700,1.322664737701416,7.239889144897461,-0.0291322469711303,0.3437542915344238,-0.0308477859944105,-0.1327829211950302,jumping
1761304400788566300,1.3167009353637695,7.139739036560059,0.0930951833724975,0.316877007484436,-0.0510057471692562,-0.1792073100805282,jumping
1761304400798702800,1.2586164474487305,7.06643009185791,0.0249385833740234,0.2771719396114349,-0.0503949001431465,-0.2311293333768844,jumping
1761304400808839200,1.211510419845581,7.041487693786621,0.0368292331695556,0.240521103143692,-0.0314586348831653,-0.264725923538208,jumping
1761304400818975700,0.8732402920722961,7.153083801269531,0.2670439481735229,0.2258607745170593,-0.0412321910262107,-0.2653367817401886,jumping
1761304400829112300,0.5167267322540283,7.653822898864746,0.7301229238510132,0.217308908700943,-0.0760504826903343,-0.2690018713474273,jumping
1761304400839248600,0.4734736084938049,8.414234161376953,1.0366692543029783,0.1879882365465164,-0.1230857223272323,-0.2457896620035171,jumping
1761304400849385200,0.4920958280563354,8.387471199035645,1.0531744956970217,0.1806580722332,-0.1719534993171692,-0.2244100123643875,jumping
1761304400859521500,0.3746201395988464,9.449484825134276,1.2817164659500122,0.2215848416090011,-0.2043284028768539,-0.1804290115833282,jumping
1761304400869658000,0.2159412503242492,9.548537254333496,1.5542209148406982,0.2851129472255707,-0.2006633281707763,-0.1217876747250557,jumping
1761304400879794700,0.2599427700042724,9.427385330200195,1.5245126485824585,0.3504736125469208,-0.1872246861457824,-0.0643680319190025,jumping
1761304400889931000,0.3342564702033996,9.193696975708008,1.3146988153457642,0.4390464723110199,-0.1120904684066772,-0.0240521114319562,jumping
1761304400900067600,0.4753747582435608,8.868206024169922,1.94308876991272,0.5978667736053467,-0.1261399537324905,-0.026495499536395,jumping
1761304400910204000,0.5181659460067749,8.72158432006836,1.6655999422073364,0.6962131857872009,-0.1475196182727813,-0.0747524350881576,jumping
1761304400920340500,0.5616532564163208,8.473979949951172,1.5758349895477295,0.7970029711723328,-0.1273616552352905,-0.1498866528272628,jumping
1761304400930477000,0.4184586405754089,7.799413681030273,1.5990982055664062,0.8244910836219788,-0.1145338639616966,-0.2378486543893814,jumping
1761304400940613400,0.5689387321472168,7.076295852661133,0.9991185069084167,0.8507575392723083,-0.0448972731828689,-0.3429143726825714,jumping
1761304400950750000,0.7459953427314758,5.90894889831543,0.7637966871261597,0.8519791960716248,-0.0113006746396422,-0.415605217218399,jumping
1761304400960886300,0.2657216191291809,4.203714370727539,0.6085907816886902,0.8116632699966431,0.0131332157179713,-0.4339306354522705,jumping
1761304400971022800,-0.392922431230545,2.194034576416016,0.4382274746894836,0.7518002390861511,0.016798298805952,-0.3813977539539337,jumping
1761304400981159400,-0.6999251842498779,-0.2434711456298828,0.2321732640266418,0.6766660213470459,-0.0119115216657519,-0.3025984466075897,jumping
1761304400991295700,-0.6000638008117676,-3.2078990936279297,-0.5765845775604248,0.5233433842658997,-0.0021379655227065,-0.2335727214813232,jumping
1761304401001432300,-0.3543806672096252,-6.502540588378906,-1.296496868133545,0.3706315755844116,0.0339020229876041,-0.1895917207002639,jumping
1761304401011568600,-0.4030027985572815,-9.88335418701172,-1.492347240447998,0.2252499312162399,0.0516165941953659,-0.1663795262575149,jumping
1761304401021705200,-0.5632176995277405,-12.858760833740234,-1.7320305109024048,0.1195733472704887,0.055281676352024,-0.1950893402099609,jumping
1761304401031841800,-0.7958226203918457,-14.89515495300293,-1.4953901767730713,0.0542126931250095,0.0424538850784301,-0.2317401766777038,jumping
1761304401041978000,-1.108702540397644,-15.832582473754885,-1.2118200063705444,-0.0184781290590763,0.0357345640659332,-0.2830513417720794,jumping
1761304401052114700,-1.0173066854476929,-15.552009582519531,-0.8785467743873596,-0.0862821787595748,0.0430647321045398,-0.3300865888595581,jumping
1761304401062251000,-0.4845177233219147,-14.395503997802734,-0.7172125577926636,-0.149199441075325,0.0461189672350883,-0.3532987833023071,jumping
1761304401072387600,-0.5993229746818542,-12.899807929992676,-0.5301324725151062,-0.2231119573116302,0.0125223686918616,-0.2702235579490661,jumping
1761304401082524000,-1.103480577468872,-11.27357006072998,-0.3279896974563598,-0.2848075330257416,-0.0479515083134174,-0.1749313771724701,jumping
1761304401092660500,-0.8480692505836487,-9.57926082611084,0.1036616563796997,-0.3507790267467499,-0.0974301397800445,-0.1193442866206169,jumping
1761304401102797000,-0.8357828855514526,-9.553359031677246,0.0644308924674987,-0.3941491842269897,-0.1524063944816589,-0.1101815775036811,jumping
1761304401112933400,-0.2573083341121673,-7.908150672912598,0.3266095519065857,-0.4161396920681,-0.2098260372877121,-0.1169008910655975,jumping
1761304401123070000,-0.1234553381800651,-8.029382705688477,0.343202531337738,-0.4069769978523254,-0.2428117841482162,-0.1303395330905914,jumping
1761304401133206300,0.1378546208143234,-8.539710998535156,0.3098224401473999,-0.3568875193595886,-0.2269297540187835,-0.1187334358692169,jumping
1761304401143342800,0.1193629205226898,-9.383270263671877,0.3297557234764099,-0.3019112646579742,-0.2104368805885315,-0.0729198902845382,jumping
1761304401153479400,0.0279970914125442,-9.967010498046877,0.1449945569038391,-0.2463241517543792,-0.1878355294466018,-0.0106134712696075,jumping
1761304401163615700,-0.2230949103832245,-10.41085720062256,-0.2745341658592224,-0.2108950167894363,-0.2018850147724151,0.0602448098361492,jumping
1761304401173752300,-0.3245245814323425,-10.569488525390623,-0.6181458234786987,-0.1791309565305709,-0.2183778882026672,0.1219403818249702,jumping
1761304401183888600,-0.3550512194633484,-10.570260047912598,-0.5801339149475098,-0.1455343663692474,-0.2544178962707519,0.153704434633255,jumping
1761304401194025200,-0.3000001311302185,-10.420762062072754,-0.6968379616737366,-0.1162136942148208,-0.2782409191131592,0.1567586809396743,jumping
1761304401204161800,-0.1187642663717269,-10.095170974731444,-0.7792970538139343,-0.0875038728117942,-0.2953446507453918,0.1335464864969253,jumping
1761304401214298000,0.1289123296737671,-9.801745414733888,-0.8320282101631165,-0.0545181185007095,-0.2922904193401336,0.1091125905513763,jumping
1761304401224434700,0.1125835478305816,-9.630998611450195,-0.8488948345184326,-0.0306950751692056,-0.2715215981006622,0.118275299668312,jumping
1761304401234571000,-0.1937388032674789,-9.41975212097168,-1.011406660079956,-0.0557398125529289,-0.2586938142776489,0.1555369794368744,jumping
1761304401244707600,-0.1826789677143097,-9.110563278198242,-1.2285363674163818,-0.1064401343464851,-0.238535851240158,0.1927986592054367,jumping
1761304401254844200,-0.0799500346183776,-8.791933059692383,-1.2557806968688965,-0.1748550236225128,-0.238535851240158,0.20806984603405,jumping
1761304401264980500,0.0374096930027008,-8.528207778930664,-1.2557291984558103,-0.2658712565898895,-0.2428117841482162,0.2019613683223724,jumping
1761304401275117000,0.1238100826740264,-8.474452018737793,-1.0594329833984375,-0.3623851239681244,-0.2312056869268417,0.1738623976707458,jumping
1761304401285253400,0.3457073867321014,-8.143457412719727,-0.7075114250183105,-0.4057552814483642,-0.2586938142776489,0.124994620680809,jumping
1761304401295390000,0.1389213502407074,-7.303760528564453,-0.0248716473579406,-0.4863871335983276,-0.2580829560756683,0.1060583516955375,jumping
1761304401305526500,-0.0908710062503814,-6.367536544799805,-0.4879829883575439,-0.5138752460479736,-0.2391466945409774,0.153704434633255,jumping
1761304401315662800,-0.0302103459835052,-4.821944713592529,-0.2304871082305908,-0.4845545887947082,-0.2580829560756683,0.2422772943973541,jumping
1761304401325799400,-0.2497382909059524,-2.1935133934021,0.4410363435745239,-0.4454603493213653,-0.2727433145046234,0.2972535490989685,jumping
1761304401335935700,-0.3616202175617218,0.6818828582763672,1.1306182146072388,-0.4637857675552368,-0.2391466945409774,0.278928130865097,jumping
1761304401346072300,-0.0464082658290863,3.257040977478028,1.358708143234253,-0.5230379700660706,-0.1359135210514068,0.2215084880590438,jumping
1761304401356208600,0.6465994715690613,4.818019866943359,2.011827230453491,-0.5108210444450378,-0.0143549107015132,0.1976854503154754,jumping
1761304401366345200,0.8667834401130676,5.571846961975098,3.5088977813720703,-0.4008685052394867,0.0889546349644661,0.2434989959001541,jumping
1761304401376481800,1.0777453184127808,5.886377334594727,3.898216009140015,-0.3483356535434723,0.2288386523723602,0.2538833916187286,jumping
1761304401386618000,1.36303973197937,6.300656318664551,2.6729602813720703,-0.3623851239681244,0.2648786306381225,0.225784420967102,jumping
1761304401396754700,0.5355169773101807,6.804288864135742,1.3301845788955688,-0.3556658029556274,0.1598129123449325,0.1524827480316162,jumping
1761304401406891300,-0.750138521194458,7.098881721496582,0.593327522277832,-0.3574983477592468,0.0051922015845775,0.1219403818249702,jumping
1761304401417027600,-1.7526370286941528,7.440230369567871,0.3226088285446167,-0.3306210935115814,-0.1316375881433487,0.1201078444719314,jumping
1761304401427164200,-1.4494154453277588,8.171845436096191,0.4341515302658081,-0.2890834510326385,-0.1860029846429824,0.118275299668312,jumping
1761304401437300500,-0.5552799105644226,8.636545181274414,0.9211535453796388,-0.2719797492027282,-0.0681094676256179,0.142709195613861,jumping
1761304401447437000,0.0894044637680053,8.565189361572266,1.478350281715393,-0.2634278833866119,0.0791810750961303,0.1543152928352356,jumping
1761304401457573400,0.3011571168899536,8.145635604858398,1.935989260673523,-0.2817533016204834,0.2001288384199142,0.1396549493074417,jumping
1761304401467710000,0.1341243982315063,7.228597640991211,1.8626245260238647,-0.3208475112915039,0.2972535490989685,0.1164427623152732,jumping
1761304401477846500,0.2655563950538635,6.128742218017578,1.886070966720581,-0.2628170251846313,0.2422772943973541,0.0626882016658783,jumping
1761304401487982800,0.358093798160553,5.385856628417969,0.984371781349182,-0.1791309565305709,0.1445417255163192,0.0248156692832708,jumping
1761304401498119400,0.3693562150001526,4.8009796142578125,0.2150397300720214,-0.0991099700331687,0.0491732060909271,0.0064902519807219,jumping
1761304401508256000,0.3207365274429321,4.480530738830566,0.1067490577697753,0.0218377895653247,-0.0009162708884105,-0.0008399150101467,jumping
1761304401518392300,0.3025487661361694,4.675307273864746,0.2253172397613525,0.1165191158652305,-0.0259610079228878,0.0272590592503547,jumping
1761304401528529000,0.4247348308563232,5.021265983581543,0.1056681871414184,0.1989834904670715,-0.0412321910262107,0.0553580336272716,jumping
1761304401538665200,0.6435632705688477,5.448265075683594,-0.0103484392166137,0.3083251416683197,-0.032069481909275,0.0669641271233558,jumping
1761304401548801800,0.6108896732330322,5.738899230957031,0.127626895904541,0.4146125912666321,-0.0045813545584678,0.0736834481358528,jumping
1761304401558938400,0.6136362552642822,6.053890228271484,0.2906959056854248,0.5056288242340088,0.0180199947208166,0.0822353139519691,jumping
1761304401569074700,0.6495854258537292,6.179122924804688,0.3664644956588745,0.5459447503089905,0.0400104969739913,0.0877329409122467,jumping
1761304401579211300,0.9532431364059448,6.251889228820801,0.1774073839187622,0.5263976454734802,0.062000997364521,0.0626882016658783,jumping
1761304401589347600,1.318877935409546,6.157483100891113,0.0677893161773681,0.5025745630264282,0.0656660795211792,0.0071010994724929,jumping
1761304401599484200,1.0734748840332031,5.609837532043457,0.3647104501724243,0.4799732267856598,0.0669641271233558,-0.0301605835556983,jumping
1761304401609620700,0.772297203540802,5.018650054931641,0.3625123500823974,0.455539345741272,0.062000997364521,-0.0405449867248535,jumping
1761304401619757000,0.8155474066734314,4.839869499206543,0.0168392658233642,0.4579827189445495,0.0516165941953659,-0.0399341396987438,jumping
1761304401629893600,0.90299391746521,5.020007133483887,-0.2225188612937927,0.4592044353485107,0.0296260919421911,-0.0319931246340274,jumping
1761304401640030000,0.6693588495254517,5.302766799926758,-0.2217110991477966,0.4653128981590271,0.0204633828252553,-0.0002290677221026,jumping
1761304401650166500,0.3727139234542846,5.654340744018555,0.0679619312286377,0.4866925477981567,0.0076355906203389,0.0376434624195098,jumping
1761304401660303000,0.1339688301086425,6.036499977111816,0.1606932878494262,0.5044071078300476,-0.0119115216657519,0.0852895453572273,jumping
1761304401670439400,-0.036985158920288,6.606855392456055,0.0753681659698486,0.5147915482521057,-0.0314586348831653,0.1280488520860672,jumping
1761304401680576000,0.1076123714447021,7.326709747314453,0.0836377143859863,0.5166240930557251,-0.0253501608967781,0.153704434633255,jumping
1761304401690712300,0.2154128551483154,7.861045837402344,0.2013502120971679,0.5361711978912354,-0.0174091476947069,0.1604237556457519,jumping
1761304401700849000,0.5872420072555542,8.382299423217773,0.4524745345115661,0.5367820262908936,0.0088572856038808,0.1463742703199386,jumping
1761304401710985500,1.029546141624451,8.981085777282715,0.1213868856430053,0.5233433842658997,0.0161874517798423,0.10117157548666,jumping
1761304401721121800,1.577033519744873,9.71178150177002,-0.1429352164268493,0.5361711978912354,0.0119115216657519,0.0406976975500583,jumping
1761304401731258400,1.5673742294311523,10.14411163330078,-0.0686548948287963,0.5703786015510559,0.0100789796561002,-0.0136677073314785,jumping
1761304401741394700,1.3131098747253418,10.42692756652832,0.0441879034042358,0.5996993184089661,0.0332911759614944,-0.0729198902845382,jumping
1761304401751531300,1.322514295578003,10.395957946777344,0.1074615120887756,0.6332958936691284,0.0724617540836334,-0.1211768239736557,jumping
1761304401761667800,1.007798433303833,10.27894115447998,0.4095560312271118,0.6577298045158386,0.0877329409122467,-0.1743205338716507,jumping
1761304401771804200,0.8151221871376038,9.999549865722656,0.3122347593307495,0.7047650218009949,0.0968956500291824,-0.2390703409910202,jumping
1761304401781940700,0.6892091035842896,9.436532974243164,0.5264301300048828,0.7579087615013123,0.1054475083947181,-0.3032093048095703,jumping
1761304401792077000,0.5480147004127502,8.485859870910645,0.6556888818740845,0.7725690603256226,0.1298813968896865,-0.3600181043148041,jumping
1761304401802213600,0.494314968585968,7.346836090087891,0.6177847981452942,0.7731798887252808,0.1286597102880478,-0.4180485904216766,jumping
1761304401812350200,0.4657468795776367,5.817184448242188,0.443374365568161,0.765849769115448,0.1231620758771896,-0.4522560536861419,jumping
1761304401822486500,0.2903684377670288,3.614031791687012,0.3110268115997314,0.7273663878440857,0.1207186877727508,-0.440649926662445,jumping
1761304401832623000,0.0595808029174804,0.7629537582397461,0.2095758467912674,0.6510104537010193,0.1060583516955375,-0.4088858962059021,jumping
1761304401842759400,-0.0718254446983337,-2.605654239654541,0.0033157132565975,0.533727765083313,0.0877329409122467,-0.3716242015361786,jumping
1761304401852896000,-0.1551730036735534,-6.333088874816895,-0.3255249261856079,0.4030064642429352,0.0430647321045398,-0.3251998126506805,jumping
1761304401863032600,-0.3162901699542999,-9.902976989746094,-0.7005524635314941,0.2686200737953186,-0.0204633828252553,-0.3099286258220672,jumping
1761304401873169000,-0.2400888800621032,-12.666421890258787,-0.8732043504714966,0.157445877790451,-0.1072036921977996,-0.3374167680740356,jumping
1761304401883305500,-0.2743950486183166,-14.639707565307615,-0.8190746307373047,0.0798682793974876,-0.19211146235466,-0.3557421863079071,jumping
1761304401893441800,-0.5163545608520508,-15.862798690795898,-0.4291146993637085,0.0474933758378028,-0.2611372172832489,-0.3325299620628357,jumping
1761304401903578400,-0.55549556016922,-16.041492462158203,-0.4040517807006836,-0.0087045738473534,-0.2953446507453918,-0.3019876182079315,jumping
1761304401913715000,-0.2813041806221008,-14.872843742370604,-0.5817057490348816,-0.0997208133339881,-0.3246653079986572,-0.2830513417720794,jumping
1761304401923851300,0.0585488975048065,-13.08141040802002,-0.5774585008621216,-0.1944021433591842,-0.3307738006114959,-0.2555632293224334,jumping
1761304401933987800,0.059181123971939,-11.449609756469728,-0.2749577760696411,-0.2915268540382385,-0.324054479598999,-0.2170798480510711,jumping
1761304401944124200,-0.161718264222145,-10.043848037719728,-0.020842358469963,-0.3855973184108734,-0.3234436213970184,-0.1767639219760894,jumping
1761304401954260700,-0.1450231075286865,-10.019363403320312,-0.0674039423465728,-0.4729484915733337,-0.3271087110042572,-0.1608818918466568,jumping
1761304401964397300,-0.3026043772697449,-8.134340286254883,0.2764722406864166,-0.5590779781341553,-0.3466558158397674,-0.1639361381530761,jumping
1761304401974533600,-0.4134496450424194,-8.08533763885498,0.1926279664039611,-0.6256603002548218,-0.3607053160667419,-0.17615307867527,jumping
1761304401984670200,-0.408833235502243,-8.637771606445312,0.2616569101810455,-0.6519267559051514,-0.3490992188453674,-0.1602710485458374,jumping
1761304401994806500,-0.6086023449897766,-9.675487518310549,0.2441596835851669,-0.6562026739120483,-0.3124483823776245,-0.1242310628294944,jumping
1761304402004943000,-0.8201185464859009,-10.669570922851562,0.138785183429718,-0.6287145614624023,-0.2935121059417724,-0.0747524350881576,jumping
1761304402015079400,-0.9543211460113524,-11.242925643920898,0.176112949848175,-0.59023118019104,-0.2721324563026428,-0.0313822776079177,jumping
1761304402025216000,-1.0842499732971191,-11.3131103515625,0.1433892548084259,-0.5505260825157166,-0.2715215981006622,-0.0002290677221026,jumping
1761304402035352600,-0.8591756224632263,-10.948453903198242,0.1458543241024017,-0.4863871335983276,-0.2696890532970428,0.0101553360000252,jumping
1761304402045489000,-0.530015766620636,-10.467663764953612,0.2990169823169708,-0.4362976551055908,-0.2593046724796295,0.0382543094456195,jumping
1761304402055625500,-0.4881764650344848,-10.066844940185549,0.1376949548721313,-0.4014793634414673,-0.2501419484615326,0.0614665038883686,jumping
1761304402065762000,-0.3827414512634277,-9.592973709106444,-0.0580988824367523,-0.3684936165809631,-0.2507528066635132,0.0932305604219436,jumping
1761304402075898400,-0.4136108160018921,-9.277838706970217,-0.2389045357704162,-0.3434488773345947,-0.2538070380687713,0.1408766508102417,jumping
1761304402086035000,-0.4568418264389038,-9.128113746643066,-0.5016545653343201,-0.3324536085128784,-0.2501419484615326,0.1952420622110366,jumping
1761304402096171300,-0.2882711291313171,-8.921257019042969,-0.6941307187080383,-0.328788548707962,-0.1817270666360855,0.2331145852804184,jumping
1761304402106307800,0.0464177131652832,-8.836665153503418,-0.0770993828773498,-0.3110739588737488,-0.1884463727474212,0.2392230629920959,jumping
1761304402116444200,0.1207761317491531,-8.716032981872559,-0.7479174137115479,-0.3544441163539886,-0.2483094036579132,0.2263952642679214,jumping
1761304402126580700,0.1315187513828277,-8.456818580627441,-1.3984172344207764,-0.3868190348148346,-0.2849602401256561,0.2123457789421081,jumping
1761304402136717300,-0.1893571764230728,-8.468076705932617,-0.7995129823684692,-0.3532224297523498,-0.3552076816558838,0.2526617050170898,jumping
1761304402146853600,-0.9405680298805236,-7.690712928771973,0.2301898002624511,-0.3825430870056152,-0.4370612204074859,0.2838149070739746,jumping
1761304402156990200,-1.3052985668182373,-6.017732620239258,0.4519602060317993,-0.5926745533943176,-0.4498890042304992,0.2801498174667358,jumping
1761304402167126500,-0.4562322497367859,-3.9673166275024414,-0.6250725984573364,-0.7612683773040771,-0.4150707125663757,0.2587701678276062,jumping
1761304402177263000,0.9505771398544312,-1.4697089195251465,-0.4359124898910522,-0.8083036541938782,-0.3155026137828827,0.2300603538751602,jumping
1761304402187399700,1.739189863204956,1.1651391983032229,0.7441133260726929,-0.774707019329071,-0.1505738496780395,0.2056264579296112,jumping
1761304402197536000,1.945811748504639,3.5908918380737305,1.9262293577194212,-0.7655443549156189,0.0039705070666968,0.1946312040090561,jumping
1761304402207672600,1.8205845355987549,5.481466293334961,2.170727252960205,-0.7966975569725037,0.0834570080041885,0.1982962936162948,jumping
1761304402217809200,1.8290960788726809,6.520076751708984,1.6859573125839231,-0.7740961909294128,0.0797919258475303,0.2270061075687408,jumping
1761304402227945500,1.688029170036316,6.541123390197754,1.221279859542847,-0.7014053463935852,0.0516165941953659,0.2899233698844909,jumping
1761304402238082000,1.0594773292541504,5.692463874816895,1.0774191617965698,-0.6042806506156921,0.0351237170398235,0.3705552220344543,jumping
1761304402248218400,-0.0330967307090759,4.790274620056152,1.0031654834747314,-0.5077667832374573,-0.0436755791306495,0.4078168869018554,jumping
1761304402258355000,-1.2610673904418943,4.651968955993652,0.8441988229751587,-0.4741701781749725,-0.0882674306631088,0.3962107896804809,jumping
1761304402268491300,-2.054055690765381,4.901050567626953,0.7087844610214233,-0.4839437305927276,-0.1145338639616966,0.3442887961864471,jumping
1761304402278627800,-1.9677927494049072,5.602776527404785,0.8280049562454224,-0.4698942601680755,-0.0876565799117088,0.2636569440364837,jumping
1761304402288764400,-1.554030418395996,6.863224983215332,1.7912049293518066,-0.4509579837322235,-0.0161874517798423,0.1689756214618683,jumping
1761304402298900700,-0.6496989727020264,8.29699420928955,2.7698349952697754,-0.4546230733394623,0.1066692024469375,0.0938414111733436,jumping
1761304402309037300,0.2206186056137085,9.085079193115234,3.119765043258667,-0.4778352677822113,0.2037939131259918,0.0443627834320068,jumping
1761304402319174000,0.9372422695159912,8.875617027282715,2.89418888092041,-0.4869979918003082,0.2801498174667358,0.0211505871266126,jumping
1761304402329310200,1.105723261833191,7.462347030639648,2.6730284690856934,-0.4405735731124878,0.3497864007949829,0.0058794049546122,jumping
1761304402339446800,1.0336087942123413,5.389619827270508,2.36010217666626,-0.3513898849487304,0.415147066116333,0.0101553360000252,jumping
1761304402349583000,0.7548413872718811,3.439197540283203,1.6231414079666138,-0.2194468826055526,0.4634039998054504,0.0370326153934001,jumping
1761304402359719700,0.2181047201156616,2.3605690002441406,0.9388591051101683,-0.0881147161126136,0.4469111263751983,0.0675749778747558,jumping
1761304402369856000,-0.3276558816432953,2.3023509979248047,0.4150992631912231,0.0193943995982408,0.3754419982433319,0.0865112394094467,jumping
1761304402379992600,-0.749717116355896,3.0516929626464844,0.1647504568099975,0.1348445266485214,0.2636569440364837,0.1072800531983375,jumping
1761304402390129200,-1.0015511512756348,4.071722984313965,-0.0921111106872558,0.2521272003650665,0.1561478376388549,0.1384332627058029,jumping
1761304402400265500,-0.7222095131874084,5.125855445861816,-0.2049304246902465,0.3504736125469208,0.1231620758771896,0.1769166439771652,jumping
1761304402410402000,-0.236867070198059,5.856121063232422,0.0370875597000122,0.4390464723110199,0.1579803675413131,0.2190650999546051,jumping
1761304402420538600,0.4427052140235901,6.314250946044922,0.2549183368682861,0.472032219171524,0.2306711971759796,0.2111240774393081,jumping
1761304402430675000,1.2486435174942017,6.489138603210449,0.1308950185775756,0.4781406819820404,0.2923667728900909,0.1561478376388549,jumping
1761304402440811500,1.6698102951049805,6.128213882446289,0.1345211267471313,0.4879142343997955,0.3259633779525757,0.0932305604219436,jumping
1761304402450947800,1.7616075277328491,5.435504913330078,0.2687135934829712,0.5013529062271118,0.2990860939025879,-0.0002290677221026,jumping
1761304402461084400,1.762704610824585,4.813250541687012,0.3510624170303345,0.5050179958343506,0.2288386523723602,-0.0906344652175903,jumping
1761304402471220700,1.2982656955718994,4.431398391723633,0.0477453470230102,0.4854708611965179,0.1256054639816284,-0.159660205245018,jumping
1761304402481357300,0.8980692625045776,4.46379280090332,-0.1911871433258056,0.4683671295642853,0.0332911759614944,-0.2097496837377548,jumping
1761304402491494000,0.3846157789230346,4.742486000061035,-0.2729063034057617,0.4512633979320526,-0.0442864261567592,-0.2256316989660263,jumping
1761304402501630200,-0.179989755153656,5.307608604431152,-0.1139811277389526,0.4396573007106781,-0.08521319180727,-0.2079171389341354,jumping
1761304402511766800,-0.6622524261474609,5.90557861328125,0.3869150876998901,0.4237752854824066,-0.0791047215461731,-0.1547734290361404,jumping
1761304402521903400,-0.7323610782623291,6.612815856933594,0.7406487464904785,0.3987305462360382,-0.0430647321045398,-0.1022405624389648,jumping
1761304402532039700,-0.5681363344192505,7.197012901306152,0.9643352031707764,0.3987305462360382,0.0003054236294701,-0.0484860017895698,jumping
1761304402542176300,-0.4690011143684387,7.562880516052246,1.1806883811950684,0.4036173224449157,0.0284043978899717,0.0058794049546122,jumping
1761304402552312600,-0.4413614869117737,7.79221248626709,0.8707976341247559,0.399952232837677,0.0363454110920429,0.0510821007192134,jumping
1761304402562449200,-0.3111579418182373,8.0021390914917,0.5037251710891724,0.4158342778682709,0.0253501608967781,0.0981173440814018,jumping
1761304402572585500,-0.075763463973999,8.30227279663086,0.3767845630645752,0.4427115619182586,0.0229067727923393,0.1170536056160926,jumping
1761304402582722000,0.4900499582290649,9.112364768981934,0.5526235103607178,0.4824166297912597,0.040621344000101,0.1042258143424987,jumping
1761304402592858600,0.9242770671844482,9.91983127593994,0.8949234485626221,0.5508314967155457,0.0516165941953659,0.0932305604219436,jumping
1761304402602995000,1.3385018110275269,10.779961585998535,0.8905664682388306,0.5990884304046631,0.0174091476947069,0.0871220901608467,jumping
1761304402613131500,1.3280210494995115,10.74650764465332,0.9579407572746276,0.691326379776001,-0.0027488125488162,0.0706292167305946,jumping
1761304402623268000,1.7434546947479248,11.978337287902832,1.1598109006881714,0.7939487099647522,0.0131332157179713,0.0639098957180976,jumping
1761304402633404400,1.7092268466949463,11.934459686279297,1.35181725025177,0.8189934492111206,0.046729814261198,0.0394760034978389,jumping
1761304402643541000,1.4488718509674072,11.59738540649414,1.3143479824066162,0.8000571727752686,0.1127776727080345,-0.0093917762860655,jumping
1761304402653677300,0.987525999546051,10.75998592376709,1.4585928916931152,0.7786775231361389,0.1616454571485519,-0.0668114200234413,jumping
1761304402663814000,0.8003731966018677,9.449624061584473,1.3854762315750122,0.7817317843437195,0.1976854503154754,-0.1199551299214363,jumping
1761304402673950200,0.8180116415023804,7.627185821533203,0.9972107410430908,0.7566870450973511,0.2215084880590438,-0.1559951156377792,jumping
1761304402684086800,0.9562914967536926,5.041038513183594,0.2302094101905822,0.710262656211853,0.2514399886131286,-0.1682120710611343,jumping
1761304402694223400,1.217491865158081,1.8078413009643557,-0.1495743989944458,0.6510104537010193,0.308859646320343,-0.158438503742218,jumping
1761304402704359700,1.458221197128296,-2.042088508605957,-0.5262595415115356,0.5349494814872742,0.3522298038005829,-0.151719182729721,jumping
1761304402714496300,1.3327479362487793,-6.077450752258301,-1.0069191455841064,0.3730749487876892,0.3351260721683502,-0.151719182729721,jumping
1761304402734769200,0.0056468248367309,-13.215483665466309,-1.4529914855957031,0.1226275861263275,0.1799708753824234,-0.2457896620035171,jumping
1761304402744905700,-0.9536569118499756,-16.028392791748047,-1.0437307357788086,0.0505476109683513,0.124383769929409,-0.260450005531311,jumping
1761304402755042000,-1.8081657886505127,-17.214698791503906,-0.5623210072517395,0.0163401644676923,0.0846787020564079,-0.212803915143013,jumping
1761304402765178600,-2.1267032623291016,-17.380504608154297,-0.0069808214902877,-0.0245866030454635,-0.0009162708884105,-0.204862892627716,jumping
1761304402775315000,-1.6914528608322144,-15.649415969848633,-0.6164056062698364,-0.1033858954906463,-0.0839914977550506,-0.1914242655038833,jumping
1761304402785451500,-1.2943588495254517,-13.60224151611328,-0.6603569984436035,-0.1754658818244934,-0.1707318127155304,-0.158438503742218,jumping
1761304402795588000,-1.3272252082824707,-11.702917098999023,-0.7845262289047241,-0.2878617644309997,-0.2104368805885315,-0.1217876747250557,jumping
1761304402805724400,-0.8408488631248474,-9.979869842529297,-1.0190383195877075,-0.3660502135753631,-0.1713426560163498,-0.1071273386478424,jumping
1761304402815861000,-0.8271195888519287,-9.954044342041016,-1.0575342178344729,-0.4155288338661194,-0.1065928488969802,-0.1199551299214363,jumping
1761304402825997300,0.4316263496875763,-7.680771827697754,-0.1279542744159698,-0.4766135811805725,-0.0229067727923393,-0.1498866528272628,jumping
1761304402836134000,0.7107009887695312,-7.5336103439331055,-0.0833645761013031,-0.5132644176483154,0.0442864261567592,-0.1975327283143997,jumping
1761304402846270500,0.3492747843265533,-8.167396545410156,-0.0491244196891784,-0.5193728804588318,0.0913980230689048,-0.1975327283143997,jumping
1761304402856406800,-0.4459287524223327,-9.307833671569824,-0.2469577193260193,-0.5242596864700317,0.0889546349644661,-0.1730988472700119,jumping
1761304402866543400,-0.7811824083328247,-10.20871639251709,-0.4625010192394256,-0.5175403356552124,0.0662769302725792,-0.1688229143619537,jumping
1761304402876679700,-0.8378795385360718,-10.844496726989746,-0.5944852828979492,-0.5010474920272827,0.055281676352024,-0.1767639219760894,jumping
1761304402886816300,-1.0540791749954224,-11.177685737609863,-0.6186040043830872,-0.4778352677822113,0.0503949001431465,-0.1810398548841476,jumping
1761304402896952800,-1.1167594194412231,-11.194734573364258,-0.5986664295196533,-0.4442386627197265,0.0662769302725792,-0.1572168171405792,jumping
1761304402907089200,-1.4698388576507568,-10.886910438537598,-0.3974726498126983,-0.3984251320362091,0.0779593810439109,-0.0912453085184097,jumping
1761304402917225700,-1.4610345363616943,-10.202506065368652,-0.2858728170394897,-0.3574983477592468,0.1005607321858406,-0.0197761803865432,jumping
1761304402927362000,-1.2548515796661377,-9.3814058303833,-0.1915002465248108,-0.3110739588737488,0.1231620758771896,0.0400868505239486,jumping
1761304402937498600,-1.0635995864868164,-8.822789192199707,-0.1895820498466491,-0.2768665254116058,0.1524827480316162,0.0687966719269752,jumping
1761304402947635200,-0.8382787704467773,-8.42324161529541,-0.2597941756248474,-0.256708562374115,0.1879118829965591,0.0859003961086273,jumping
1761304402957771500,-0.7456551790237427,-8.435429573059082,-0.3958663940429687,-0.2475458532571792,0.2227301746606826,0.0981173440814018,jumping
1761304402967908000,-0.4686289429664612,-8.490387916564941,-0.6738622188568115,-0.2615953385829925,0.2441098392009735,0.0932305604219436,jumping
1761304402978044700,-0.3878147006034851,-8.704761505126953,-0.959682285785675,-0.3006895780563354,0.2606027126312256,0.0926197171211242,jumping
1761304402988181000,-0.3731376826763153,-9.073243141174316,-1.026779294013977,-0.3440597057342529,0.2624352574348449,0.1091125905513763,jumping
1761304402998317600,-0.3306938111782074,-9.406624794006348,-1.0576791763305664,-0.3929274976253509,0.2581593096256256,0.1439308822154998,jumping
1761304403008454000,-0.2227350771427154,-9.671366691589355,-1.127476692199707,-0.4521796703338623,0.2575484812259674,0.1836359500885009,jumping
1761304403018590500,-0.159931793808937,-9.772575378417969,-1.1524513959884644,-0.462564080953598,0.2111240774393081,0.2251735776662826,jumping
1761304403028726800,0.0077382624149322,-8.473567962646484,-0.3293280601501465,-0.4906630516052246,0.0987281873822212,0.2135674655437469,jumping
1761304403038863400,-0.6484324932098389,-6.241103649139404,0.0559089183807373,-0.709346354007721,0.062000997364521,0.2050156146287918,jumping
1761304403048999700,-1.4388216733932495,-3.768118381500244,-0.5521855354309082,-0.8486195802688599,0.1506502032279968,0.2410555928945541,jumping
1761304403059136300,-1.0900508165359497,-0.3930435180664062,0.1916028261184692,-0.8376243114471436,0.1763057857751846,0.2929776310920715,jumping
1761304403069272800,0.1512362658977508,4.086236000061035,1.1315802335739136,-0.7869240045547485,0.2221193313598632,0.2483857721090316,jumping
1761304403079409200,2.171459913253784,9.046826362609863,1.7750873565673828,-0.783869743347168,0.3613924980163574,0.2355579733848571,jumping
1761304403089545700,3.5762760639190674,12.147833824157717,2.6199491024017334,-0.8241856694221497,0.5464792251586914,0.2086806893348693,jumping
1761304403099682300,4.521520137786865,14.152348518371582,3.020313024520874,-0.9249754548072816,0.6405497193336487,0.2300603538751602,jumping
1761304403109818600,3.2278833389282227,14.968334197998049,3.2927939891815186,-1.0795198678970337,0.6155049800872803,0.1433200389146804,jumping
1761304403119955200,3.0640792846679688,15.76840877532959,2.8416852951049805,-1.2041326761245728,0.4908921420574188,-0.0209978744387626,jumping
1761304403130091500,1.8139233589172363,15.062687873840332,2.5833964347839355,-1.2053543329238892,0.3149681091308594,-0.1779856234788894,jumping
1761304403140228000,0.7284483909606934,13.147745132446287,2.2090446949005127,-1.1326634883880615,0.1677539348602295,-0.1987544298171997,jumping
1761304403150364700,-0.397138237953186,11.08853816986084,1.3768880367279053,-1.0123265981674194,0.0742942988872528,-0.0942995473742485,jumping
1761304403160501000,-1.031098484992981,9.566746711730955,0.7623333930969238,-0.8333483934402466,-0.0247393138706684,0.041308544576168,jumping
1761304403170637600,-1.822454810142517,9.023179054260254,0.9651892185211182,-0.6940752267837524,-0.0974301397800445,0.1378224194049835,jumping
1761304403180774000,-2.1701457500457764,8.765137672424316,1.5018301010131836,-0.6702521443367004,-0.1206423342227935,0.1573695242404937,jumping
1761304403190910500,-2.087658405303955,8.670365333557129,1.045081377029419,-0.7582141757011414,-0.1554606258869171,0.1274380087852478,jumping
1761304403201047000,-1.1762893199920654,8.396686553955078,0.658789873123169,-0.8571714162826538,-0.1279724985361099,-0.0472643077373504,jumping
1761304403211183400,0.893216073513031,7.330854415893555,1.1486213207244873,-0.8467870354652405,-0.1524063944816589,-0.1291178464889526,jumping
1761304403221320000,-0.469430148601532,6.936694145202637,1.8889732360839844,-0.9115368127822876,-0.133470132946968,-0.099186323583126,jumping
1761304403231456300,0.6457405090332031,5.79985237121582,0.8206427097320557,-1.0288194417953491,-0.137746050953865,-0.2066954374313354,jumping
1761304403241592800,1.72255277633667,4.679178237915039,0.2110497951507568,-1.1338852643966677,-0.1670667231082916,-0.3221455812454223,jumping
1761304403251729400,2.075443744659424,3.4487667083740234,-0.1524016857147216,-1.1748119592666626,-0.1414111405611038,-0.443093329668045,jumping
1761304403261865700,1.943027138710022,2.226212501525879,-0.1730873584747314,-1.0679137706756592,-0.0522274412214756,-0.5206709504127502,jumping
1761304403272002300,1.924490451812744,0.6165065765380859,0.4986550807952881,-1.0056072473526,-0.3038965165615082,-0.5506024360656738,jumping
1761304403282138600,0.7862614393234253,1.0405035018920898,-1.4443259239196775,-1.0929584503173828,-0.3875826001167297,-0.4357631504535675,jumping
1761304403292275200,0.0540266036987304,0.0570230484008789,-2.116353273391724,-1.2481136322021484,-0.4211791753768921,-0.2439571171998977,jumping
1761304403302411500,-1.3592054843902588,-0.8213977813720703,-2.025050163269043,-1.2340642213821411,-0.5158604979515076,0.2019613683223724,jumping
1761304403312548000,-3.6447110176086426,-2.266599178314209,0.168766975402832,-1.070357084274292,-0.4224008917808532,0.6710920929908752,jumping
1761304403322684700,-2.2045440673828125,-2.37661075592041,1.5260603427886963,-0.8559496998786926,-0.1475196182727813,0.8989381194114685,jumping
1761304403332821000,-0.6540126800537109,-1.8273382186889648,1.90362286567688,-0.7588250041007996,0.1763057857751846,0.891607940196991,jumping
1761304403342957600,0.7424495816230774,-1.1533660888671875,1.1235990524291992,-0.7319477200508118,0.7486696839332581,0.8048676252365112,jumping
1761304403353094000,0.775237500667572,-1.498091697692871,0.4669489860534668,-0.6745280623435974,0.4927246570587158,0.7126296758651733,jumping
1761304403363230500,1.9046332836151123,-1.899764060974121,-1.808867692947388,-0.6171084642410278,0.0981173440814018,0.5305972099304199,jumping
1761304403373366800,2.037113904953003,-2.3973426818847656,-2.108842611312866,-0.6061131954193115,-0.0668877735733985,0.329628437757492,jumping
1761304403383503400,1.438309669494629,-2.2701148986816406,-1.9639201164245603,-0.6378772258758545,-0.0900999680161476,0.1341573297977447,jumping
1761304403393639700,1.0426676273345947,-1.859100341796875,-2.189988136291504,-0.7020162343978882,-0.1169772520661354,0.0284807533025741,jumping
1761304403403776300,-0.1263220906257629,-2.158869743347168,-2.482235908508301,-0.8431219458580017,-0.1640124917030334,0.0382543094456195,jumping
1761304403413912800,-0.8328366279602051,-2.745556354522705,-3.2802157402038574,-1.1607625484466553,0.0070247435942292,0.1390441060066223,jumping
1761304403424049200,-1.805550217628479,-2.758749008178711,-4.332162857055664,-1.7130447626113892,0.4194230139255523,0.2526617050170898,jumping
1761304403434185700,-1.20224928855896,-2.479619026184082,-6.576554298400879,-2.466219425201416,0.7395069599151611,0.3039728701114654,jumping
1761304403444322000,0.2970653176307678,-1.9660539627075195,-8.861000061035156,-3.3470611572265625,0.9154309630393982,0.1842468082904815,jumping
1761304403454458600,1.092753291130066,-0.5925126075744629,-10.024049758911133,-4.170483112335205,1.029659390449524,-0.0790283605456352,jumping
1761304403464595200,1.003270149230957,0.2627406120300293,-9.780662536621094,-4.878531455993652,1.12250816822052,-0.2738886475563049,jumping
1761304403474731500,1.1173878908157349,0.595609188079834,-10.191949844360352,-5.565124034881592,1.330807089805603,-0.4711923003196716,jumping
1761304403484868000,1.744809627532959,-0.0158905982971191,-8.410327911376953,-6.1576457023620605,1.4847406148910522,-0.6746044158935547,jumping
1761304403495004400,2.247041940689087,-0.4986701011657715,-6.5745368003845215,-6.255992412567139,1.854303240776062,-0.847474217414856,jumping
1761304403505141000,1.4133483171463013,-1.137554168701172,-4.18364953994751,-6.405649662017822,1.9538713693618772,-0.9397121667861938,jumping
1761304403515277600,0.8746417164802551,-1.8257312774658203,-4.262324810028076,-6.47467565536499,2.147509813308716,-1.024009108543396,jumping
1761304403525414000,0.5184229612350464,-2.038668394088745,-4.04701042175293,-6.458793640136719,2.330153226852417,-1.0997540950775146,jumping
1761304403535550500,0.5201839208602905,-1.6017842292785645,-3.988074779510498,-6.42275333404541,2.2305850982666016,-1.2720893621444702,jumping
1761304403545686800,1.2556694746017456,-0.919309139251709,-3.638495922088623,-6.364723205566406,1.757178544998169,-1.488329291343689,jumping
1761304403555823400,1.5746028423309326,-0.7376487255096436,-3.114641666412353,-6.113053798675537,1.0223292112350464,-1.7161753177642822,jumping
1761304403565959700,1.6194233894348145,-0.4610111713409424,-0.932814598083496,-5.468610286712647,0.327795922756195,-1.871941447257996,jumping
1761304403576096300,0.5335350036621094,-0.7928318977355957,2.272873878479004,-4.606093883514404,-0.0797155648469924,-1.8652220964431765,jumping
1761304403586232800,-0.3050810098648071,-1.029420256614685,4.207798004150391,-3.7893145084381104,-0.7895200848579407,-1.7057909965515137,jumping
1761304403596369200,-0.8240437507629395,-1.27743661403656,4.378450393676758,-3.00132155418396,-1.5927842855453491,-1.5231475830078125,jumping
1761304403606505700,-1.7625434398651123,-1.149882674217224,5.078619956970215,-2.353212594985962,-2.0839054584503174,-1.4742798805236816,jumping
1761304403616642000,-0.9962889552116394,-1.0954487323760986,4.660393714904785,-2.028241872787476,-2.1883602142333984,-1.480999231338501,jumping
1761304403626778600,-0.4852026104927063,-1.5395480394363403,3.95083999633789,-1.934171438217163,-1.9366912841796875,-1.392426371574402,jumping
1761304403636915000,-0.4923469424247741,-1.7357642650604248,3.713250160217285,-1.9610487222671509,-1.3814311027526855,-1.28186297416687,jumping
1761304403647051500,-0.634436845779419,-1.3156311511993408,4.092114448547363,-2.1180365085601807,-0.7088882327079773,-1.115025281906128,jumping
1761304403657188000,-0.923209309577942,-1.0954235792160034,4.228250503540039,-2.336719751358032,0.027793550863862,-0.9140565395355223,jumping
1761304403667324400,-1.1551835536956787,-0.955280303955078,4.454108238220215,-2.4277360439300537,0.8280798196792603,-0.6972057819366455,jumping
1761304403677461000,-1.6055731773376465,-1.232779860496521,4.804365158081055,-2.336719751358032,1.0492064952850342,-0.5060105919837952,jumping
1761304403687597300,-1.9641385078430176,-1.711971402168274,4.0979719161987305,-1.9549403190612795,-0.2843494117259979,-0.3783435225486755,jumping
1761304403697734000,-2.946894407272339,-1.936805725097656,3.909939765930176,-1.251167893409729,-1.9776179790496824,-0.3520770967006683,jumping
1761304403707870200,-2.651841640472412,-1.5438604354858398,5.1320648193359375,-0.4149180054664612,-2.7449185848236084,-0.4510343372821808,jumping
1761304403718006800,-2.181824207305908,-0.6747361421585083,6.2633056640625,0.3046600818634033,-3.082106113433838,-0.6684959530830383,jumping
1761304403728143400,-0.4045376181602478,-1.5673061609268188,6.068413734436035,0.9246700406074524,-2.931226968765259,-0.9238301515579224,jumping
1761304403738279700,0.7836651802062988,-2.5116913318634038,6.740094184875488,1.4647353887557983,-2.303199529647827,-1.0496646165847778,jumping
1761304403748416300,0.4997302293777466,-2.7757065296173096,7.001320838928223,1.9130972623825075,-1.4040324687957764,-0.967811107635498,jumping
1761304403758552600,-0.0248652100563049,-2.7622087001800537,6.6255292892456055,2.191032648086548,-0.6215370893478394,-0.7344674468040466,jumping
1761304403768689200,-0.2210511565208435,-2.585702419281006,5.364148139953613,2.0914647579193115,-0.3338280320167541,-0.39239302277565,jumping
1761304403778825700,-1.041645646095276,-2.1929373741149902,3.1413354873657227,1.5655251741409302,-0.2696890532970428,-0.1303395330905914,jumping
1761304403788962000,-1.2955646514892578,-1.452284574508667,1.1886262893676758,0.9216157793998718,0.0131332157179713,-0.0148894023150205,jumping
1761304403799098600,-1.0273504257202148,-1.0590225458145142,0.2965564727783203,0.342532604932785,0.3436779379844665,0.0779593810439109,jumping
1761304403809235000,-0.955138087272644,-1.162397861480713,-0.0161933898925781,-0.1143811494112014,0.6020663380622864,0.2300603538751602,jumping
1761304403819371500,-1.0857974290847778,-1.3917555809020996,-0.1713685989379882,-0.4943281412124634,0.7101863026618958,0.364446759223938,jumping
1761304403829508000,-0.743467390537262,-1.2415052652359009,-0.5422239303588867,-0.7728744745254517,0.734620213508606,0.4475219845771789,jumping
1761304403839644400,-0.7472984790802002,-0.9833832383155824,-0.2264881134033203,-0.8754968047142029,0.7914289832115173,0.5104392170906067,jumping
1761304403849781000,-0.6310757994651794,-0.8990004062652588,0.5104465484619141,-0.8162446618080139,0.7944832444190979,0.5544202327728271,jumping
1761304403859917300,-0.3226180970668793,-0.8466428518295288,1.0189905166625977,-0.6189410090446472,0.6600968241691589,0.5605286955833435,jumping
1761304403870054000,-0.0973802804946899,-0.7990318536758423,1.213780403137207,-0.3110739588737488,0.4511870443820953,0.548922598361969,jumping
1761304403880190200,0.2839869856834411,-0.7153140902519226,1.9499197006225584,-0.0074828788638114,0.2459423840045929,0.4786751866340637,jumping
1761304403890326800,0.4909275472164154,-0.593567967414856,1.0108671188354492,0.2038702666759491,0.2520508468151092,0.3955999612808227,jumping
1761304403900463400,0.2710969746112823,-0.3251729905605316,0.5305261611938477,0.3071034550666809,0.3106921911239624,0.3235199749469757,jumping
1761304403910599700,-0.256249189376831,-0.3176110982894897,0.2432260513305664,0.3034383654594421,0.1420983374118805,0.2862583100795746,jumping
1761304403920736300,-0.316579520702362,-0.5710119605064392,-0.2456092834472656,0.2625116109848022,-0.0723854005336761,0.306416243314743,jumping
1761304403930872600,-0.3649389743804931,-0.8749659657478333,-0.1669292449951172,0.2747285664081573,-0.1194206401705741,0.3412345647811889,jumping
1761304403941009200,-0.3070268034934997,-0.9778342247009276,0.0332298278808593,0.3272614181041717,-0.0100789796561002,0.3748311400413513,jumping
1761304403951145500,-0.1253951787948608,-0.9349273443222046,0.1204586029052734,0.4011739492416382,0.1567586809396743,0.385215550661087,jumping
1761304403961282000,0.1578513085842132,-0.6564667224884033,0.5396080017089844,0.5276193022727966,0.3436779379844665,0.3705552220344543,jumping
1761304403971418600,0.4286789894104004,-0.5009629130363464,0.815464973449707,0.7224795818328857,0.5153260231018066,0.3510081171989441,jumping
1761304403981555000,0.5199557542800903,-0.548898458480835,1.056666374206543,0.9362761378288268,0.6857523918151855,0.304583728313446,jumping
1761304403991691500,0.6706175208091736,-0.2360972762107849,1.0158700942993164,1.1244934797286987,0.7272900342941284,0.1897444278001785,jumping
1761304404001827800,0.7989765405654907,0.0006654858589172,0.6296606063842773,1.2546038627624512,0.5922927856445312,0.0449736304581165,jumping
1761304404011964400,0.914798140525818,0.0227696895599365,-0.166050910949707,1.3181320428848269,0.4817294180393219,-0.0778066664934158,jumping
1761304404022100700,0.7632545828819275,-0.066027283668518,-0.2438945770263672,1.305915117263794,0.4499653577804565,-0.1749313771724701,jumping
1761304404032237300,0.4187587797641754,-0.1077520847320556,-0.5025949478149414,1.1971843242645264,0.4230880737304687,-0.1932567954063415,jumping
1761304404042374000,-0.4363590478897095,-0.3675603866577148,-0.98583984375,1.038898468017578,0.38093963265419,-0.1083490327000618,jumping
1761304404052510200,-0.8296387195587158,-0.8731157183647156,-1.4755449295043943,0.9234483242034912,0.4298073947429657,-0.022219568490982,jumping
1761304404062646800,0.1827977895736694,-1.1121485233306885,-1.0691375732421875,0.8018897175788879,0.6069530844688416,-0.0142785543575882,jumping
1761304404072783000,0.2261931449174881,-0.9207206964492798,-1.1798458099365234,0.7047650218009949,0.7700493335723877,0.041308544576168,jumping
1761304404082919700,-0.4500850141048431,-0.7705003023147583,-1.2016887664794922,0.6558972597122192,0.7779903411865234,0.1213295385241508,jumping
1761304404093056300,-0.5922877788543701,-0.6476559638977051,-0.9236612319946288,0.6858287453651428,0.7162947654724121,0.1824142634868621,jumping
1761304404103192600,-0.4908950328826904,-0.517606258392334,-0.7285547256469727,0.7291989326477051,0.6265002489089966,0.2300603538751602,jumping
1761304404113329200,-0.4700205624103546,-0.4567608833312988,-0.8342180252075195,0.7493568658828735,0.4945572018623352,0.2434989959001541,jumping
1761304404123465500,-0.3189994692802429,-0.5785636901855469,-1.1036062240600586,0.7847860455513,0.3626142144203186,0.2422772943973541,jumping
1761304404133602000,-0.1454930901527404,-0.7664511203765869,-1.2091093063354492,0.8312104344367981,0.2031830698251724,0.2233410328626632,jumping
1761304404143738600,0.0835539698600769,-0.7518531084060669,-1.4050159454345703,0.8458707332611084,0.032069481909275,0.171419009566307,jumping
1761304404153875000,0.2031832635402679,-0.5729944705963135,-1.6712532043457031,0.7823426127433777,-0.1194206401705741,0.1060583516955375,jumping
1761304404164011500,0.2650749087333679,-0.3570089340209961,-1.8089303970336916,0.71942538022995,-0.1579040139913559,0.0516929477453231,jumping
1761304404174147800,0.0642327964305877,-0.3643920421600342,-1.4694299697875977,0.6534538269042969,-0.1035386100411415,0.0657424330711364,jumping
1761304404184284400,-0.2121829986572265,-0.5624459981918335,-1.267866134643555,0.5746545791625977,0.0082464376464486,0.0993390381336212,jumping
1761304404194420700,-0.1897197365760803,-0.5738649368286133,-1.0441837310791016,0.4756973087787628,0.1879118829965591,0.1304922401905059,jumping
1761304404204557300,-0.0586047768592834,-0.4668705463409424,-0.9349336624145508,0.3620797097682953,0.3760528564453125,0.1292705535888672,jumping
1761304404214694000,0.0942358672618866,-0.3073527812957763,-1.013051986694336,0.2845021188259125,0.5324297547340393,0.1280488520860672,jumping
1761304404224830200,-0.0203779935836792,-0.2236521244049072,-1.0011110305786133,0.2234173864126205,0.5886276960372925,0.1317139416933059,jumping
1761304404234966800,-0.114427626132965,-0.2306299209594726,-1.3364601135253906,0.1959292590618133,0.498222291469574,0.118886150419712,jumping
1761304404245103000,-0.1330018043518066,-0.2411959171295166,-1.464158058166504,0.210589587688446,0.2783172726631164,0.0907871723175048,jumping
1761304404255239700,-0.0534409284591674,-0.2909431457519531,-1.429239273071289,0.2728960216045379,0.0241284668445587,0.071240060031414,jumping
1761304404265376000,-0.145077109336853,-0.3265676498413086,-1.1117677688598633,0.3529170155525207,-0.1695101112127304,0.0614665038883686,jumping
1761304404275512600,-0.1772984862327575,-0.2460863590240478,-0.8815011978149414,0.3651339411735534,-0.305118203163147,0.0461953245103359,jumping
1761304404285649200,-0.0996862649917602,-0.1017134189605712,-0.9633150100708008,0.3199312388896942,-0.3087832927703857,0.0376434624195098,jumping
1761304404295785500,-0.1079322099685669,0.0310189723968505,-0.7923822402954102,0.2631224691867828,-0.1805053651332855,0.0345892272889614,jumping
1761304404305922000,0.1284710168838501,-0.0010983943939208,-0.6007709503173828,0.2124221324920654,-0.0284043978899717,-0.0002290677221026,jumping
1761304404316058400,0.5139934420585632,-0.1239545345306396,-0.1444635391235351,0.1922641694545745,0.071240060031414,-0.0637571811676025,jumping
1761304404326195000,0.3910170793533325,-0.3022148609161377,-0.2354240417480468,0.2283041626214981,0.0222959257662296,-0.0979646295309066,jumping
1761304404336331500,-0.0810180902481079,-0.3783864974975586,-0.540837287902832,0.2655658423900604,-0.115144707262516,-0.1089598834514617,jumping
1761304404346467800,-0.329385757446289,-0.2444038391113281,-0.6260881423950195,0.2673983871936798,-0.1860029846429824,-0.1046839505434036,jumping
1761304404356604400,-0.360806405544281,-0.1302194595336914,-0.4561948776245117,0.2447970360517501,-0.1915006190538406,-0.0869693756103515,jumping
1761304404366740700,-0.3291031122207641,-0.1558256149291992,-0.7607536315917969,0.2032594233751297,-0.2000524699687957,-0.0643680319190025,jumping
1761304404376877300,-0.3195011615753174,-0.20646333694458,-1.0154752731323242,0.1647760421037674,-0.2024958729743957,-0.0533727779984474,jumping
1761304404387014000,-0.3005723357200622,-0.157684326171875,-1.0518770217895508,0.0994153916835784,-0.2305948436260223,-0.0545944720506668,jumping
1761304404397150200,-0.2630395293235779,-0.0640299320220947,-1.270282745361328,0.0016798300202935,-0.2605263590812683,-0.0533727779984474,jumping
1761304404407286800,-0.2586030662059784,0.0245332717895507,-1.2973394393920898,-0.0997208133339881,-0.2018850147724151,-0.0429883748292923,jumping
1761304404417423000,-0.2352084219455719,-0.0564229488372802,-0.8817911148071289,-0.1791309565305709,-0.0736070945858955,-0.0344365127384662,jumping
1761304404427559700,-0.2067333459854126,-0.1040902137756347,-0.6949586868286133,-0.2261662036180496,0.032069481909275,-0.0338256657123565,jumping
1761304404437696000,-0.0173498392105102,-0.0454757213592529,-0.4152946472167969,-0.2371614426374435,0.1164427623152732,-0.0411558337509632,jumping
1761304404447832600,0.0026257038116455,-0.0386998653411865,-0.2332630157470703,-0.2206685692071914,0.1995179802179336,-0.0399341396987438,jumping
1761304404457969200,-0.0809724926948547,-0.1393239498138427,0.09600830078125,-0.1711899489164352,0.2948101460933685,-0.030771430581808,jumping
1761304404468105500,-0.1563661098480224,-0.2261695861816406,0.1746835708618164,-0.1382041871547699,0.283204048871994,-0.0142785543575882,jumping
1761304404478242000,-0.2957962155342102,-0.2629637718200683,-0.2478866577148437,-0.1101052165031433,0.2129566222429275,-0.0038941511884331,jumping
1761304404488378400,-0.269654631614685,-0.1819751262664795,-0.3294563293457031,-0.066124215722084,0.1396549493074417,-0.0106134712696075,jumping
1761304404498515000,-0.2105212807655334,-0.0739166736602783,-0.1855421066284179,-0.0251974500715732,0.0810136198997497,-0.0240521114319562,jumping
1761304404508651300,-0.1975164413452148,-0.0176043510437011,-0.0197477340698242,0.0151184694841504,0.0198525357991457,-0.037490751594305,jumping
1761304404518787800,-0.2530480027198791,0.0157470703125,0.0079565048217773,0.0548235401511192,-0.0241284668445587,-0.0417666807770729,jumping
1761304404528924200,-0.3345558047294616,-0.0923278331756591,0.1009302139282226,0.0841442123055458,-0.019241688773036,-0.030771430581808,jumping
1761304404539060700,-0.3936718702316284,-0.1947324275970459,0.2493419647216797,0.1018587797880172,0.0180199947208166,-0.0155002493411302,jumping
1761304404549197300,-0.451115608215332,-0.1786942481994629,0.2659635543823242,0.0878092944622039,0.0669641271233558,0.0089336410164833,jumping
1761304404559333600,-0.394264280796051,-0.1425874233245849,0.1672029495239257,0.0499367639422416,0.1207186877727508,0.0358109213411808,jumping
1761304404569470200,-0.3228064775466919,-0.0950913429260253,0.0341691970825195,0.0029015245381742,0.1555369794368744,0.0523037947714328,jumping
1761304404579606800,-0.2726020216941833,0.0437812805175781,-0.0062904357910156,-0.0313059203326702,0.1634780019521713,0.0639098957180976,jumping
1761304404589743000,-0.3037006855010986,0.0406017303466796,-0.0156946182250976,-0.0245866030454635,0.1201078444719314,0.0877329409122467,jumping
1761304404599879700,-0.4285376667976379,-0.0641932487487793,0.0854997634887695,0.012675080448389,0.0706292167305946,0.1158319115638732,jumping
1761304404610016000,-0.3573504686355591,-0.1021432876586914,0.2305908203125,0.0658187940716743,0.021074229851365,0.1237729266285896,jumping
1761304404620152600,-0.1667901277542114,0.0382411479949951,0.3386592864990234,0.127514362335205,-0.0094681326299905,0.10117157548666,jumping
1761304404630289200,0.0313624143600463,0.2458438873291015,0.5918045043945312,0.1983726471662521,-0.0082464376464486,0.0730726048350334,jumping
1761304404640425500,0.1040564775466919,0.1735305786132812,0.5448713302612305,0.2502946555614471,-0.021074229851365,0.0578014217317104,jumping
1761304404650562000,0.0665075182914733,0.0896973609924316,0.2886238098144531,0.2747285664081573,-0.0290152449160814,0.0388651564717292,jumping
1761304404660698400,0.0752728581428527,0.1485111713409423,0.0038461685180664,0.259457379579544,-0.0491732060909271,0.026648212224245,jumping
1761304404670835000,0.0246332287788391,0.1693408489227295,-0.2159576416015625,0.2301367074251175,-0.0693311616778373,0.0205397382378578,jumping
1761304404680971300,0.0443554520606994,0.1727995872497558,-0.2231645584106445,0.211811289191246,-0.08582404255867,0.0064902519807219,jumping
1761304404691107800,0.1730036437511444,0.2147278785705566,-0.1928977966308593,0.2044811248779297,-0.109036237001419,-0.0185544863343238,jumping
1761304404701244200,0.2230815291404724,0.2399556636810302,-0.1256332397460937,0.2008160352706909,-0.1273616552352905,-0.0381015986204147,jumping
1761304404711380700,0.1197720468044281,0.1511855125427246,0.0090694427490234,0.2069245129823684,-0.1212531775236129,-0.0344365127384662,jumping
1761304404721517300,-0.0162246823310852,0.0006880760192871,0.1564311981201172,0.2270824611186981,-0.1035386100411415,-0.0100026242434978,jumping
1761304404731653600,-0.0646149516105651,-0.0560030937194824,0.10150146484375,0.2319692522287368,-0.0931542068719863,0.0022143214009702,jumping
1761304404741790200,0.1349472999572754,0.0785737037658691,-0.0330152511596679,0.2112004458904266,-0.0717745497822761,-0.0087809292599558,jumping
1761304404751926800,0.23695969581604,0.2127981185913086,-0.1162919998168945,0.1922641694545745,-0.0546708293259143,-0.0319931246340274,jumping
1761304404762063000,0.2510340511798858,0.2481565475463867,-0.194131851196289,0.1696628332138061,-0.0546708293259143,-0.0594812519848346,jumping
1761304404782336000,0.3203917443752289,0.4010446071624756,-0.602142333984375,0.0755923464894294,-0.1145338639616966,-0.129728689789772,jumping
1761304404792472600,0.2759605646133423,0.4156527519226074,-0.7219915390014648,0.008399149402976,-0.1218640282750129,-0.1590493619441986,jumping
1761304404802609200,0.2647085785865783,0.3515801429748535,-0.6080341339111328,-0.0337493121623992,-0.1096470803022384,-0.1810398548841476,jumping
1761304404812745500,0.2186501920223236,0.2414596080780029,-0.4826326370239258,-0.0587940476834774,-0.1096470803022384,-0.1908134073019027,jumping
1761304404822882000,0.1281200647354126,0.1333169937133789,-0.4380321502685547,-0.0862821787595748,-0.1414111405611038,-0.1920351088047027,jumping
1761304404833018400,0.0483735799789428,0.0757331848144531,-0.5055265426635742,-0.1046075895428657,-0.1701209545135498,-0.1963110417127609,jumping
1761304404843155000,0.0149523913860321,0.1171989440917968,-0.4477558135986328,-0.1217113137245178,-0.1951656937599182,-0.2030303627252578,jumping
1761304404853291300,0.0711897909641265,0.0607593059539794,-0.4323348999023437,-0.1650814712047577,-0.2049392610788345,-0.2207449227571487,jumping
1761304404863427800,0.2564213573932647,0.1006088256835937,-0.5038585662841797,-0.2279987335205078,-0.2122694253921508,-0.258006602525711,jumping
1761304404873564400,0.2618195414543152,0.1727170944213867,-0.2828750610351562,-0.2518217861652374,-0.2012741714715957,-0.2977116703987121,jumping
1761304404883700700,0.2073922306299209,0.0774922370910644,0.1616983413696289,-0.2108950167894363,-0.2159345000982284,-0.3148154020309448,jumping
1761304404893837300,0.1430947184562683,-0.1608138084411621,0.4131250381469726,-0.1217113137245178,-0.2599155008792877,-0.3270323574542999,jumping
1761304404903973600,0.1144198477268219,-0.2458398342132568,0.4208850860595703,0.1519482582807541,0.1353790163993835,-0.3532987833023071,jumping
1761304404914110200,0.6308541297912598,-0.4207334518432617,5.538771629333496,0.3388675153255462,0.0473406612873077,-0.347801148891449,jumping
1761304404924246800,0.6111345291137695,-0.7249326705932617,0.1696681976318359,0.3205420970916748,0.1604237556457519,-0.3172588050365448,jumping
1761304404934383000,-0.6720075011253357,-0.1744296550750732,1.4663171768188477,0.3303156495094299,0.3540623486042022,-0.2714452445507049,jumping
1761304404944519700,-0.1141451597213745,-0.571711540222168,1.2320127487182615,0.259457379579544,0.4102602899074554,-0.2237991690635681,jumping
1761304404954656000,-0.1123741865158081,-0.7434971332550049,0.5330600738525391,0.1794363856315612,0.4743992388248443,-0.1669903695583343,jumping
1761304404964792600,-0.6238895654678345,-0.7403309345245361,-0.0340518951416015,0.0963611528277397,0.2917559146881103,-0.1034622564911842,jumping
1761304404974929200,-0.7711581587791443,-0.5410408973693848,-1.1107902526855469,0.0151184694841504,-0.0412321910262107,-0.0942995473742485,jumping
1761304404985065500,-0.7648661732673645,-0.2490158081054687,-1.7395477294921875,-0.0368035472929477,-0.3521534502506256,-0.1077381819486618,jumping
1761304404995202000,-0.7952064275741577,-0.2604475021362304,-1.4362993240356443,-0.042912021279335,-0.4920374751091003,-0.1138466596603393,jumping
1761304405005338400,-0.7796821594238281,-0.4111731052398681,-0.3961172103881836,0.0163401644676923,-0.483485609292984,-0.1022405624389648,jumping
1761304405015475000,-0.7990492582321167,-0.5409367084503174,0.370274543762207,0.1024696305394172,-0.3906368315219879,-0.0881910696625709,jumping
1761304405025611300,-0.715753436088562,-0.5056288242340088,0.6174163818359375,0.1800472289323806,-0.2617480456829071,-0.0863585323095321,jumping
1761304405035747800,-0.5477925539016724,-0.3361248970031738,0.4409904479980469,0.2264716178178787,-0.1493521481752395,-0.099797174334526,jumping
1761304405045884400,-0.366140067577362,-0.2465114593505859,0.1990518569946289,0.2344126403331756,-0.0271827038377523,-0.1126249656081199,jumping
1761304405056020700,-0.2046834230422973,-0.1456191539764404,0.0124826431274414,0.2142546772956848,0.0644443854689598,-0.1260636001825332,jumping
1761304405066157300,-0.1436952948570251,-0.0573360919952392,-0.2273893356323242,0.1678302884101867,0.1152210608124733,-0.1358371526002884,jumping
1761304405076294000,-0.1189630031585693,0.0227458477020263,-0.449223518371582,0.1262926757335662,0.0528382882475853,-0.1559951156377792,jumping
1761304405086430200,-0.0579674839973449,0.1161155700683593,-0.6963100433349609,0.0847550556063652,-0.0522274412214756,-0.1743205338716507,jumping
1761304405096566800,-0.0507712364196777,0.1754422187805175,-0.6190586090087891,0.0633754059672355,-0.1194206401705741,-0.182872399687767,jumping
1761304405106703000,-0.0352033376693725,0.1658241748809814,-0.2355451583862304,0.0841442123055458,-0.1053711548447609,-0.1804290115833282,jumping
1761304405116839700,0.0959803760051727,0.1529607772827148,0.2485694885253906,0.1195733472704887,-0.0937650576233863,-0.1785964667797088,jumping
1761304405126976000,0.143739104270935,0.1445446014404297,0.2092542648315429,0.1488940119743347,-0.1371352076530456,-0.1688229143619537,jumping
1761304405137112600,-0.0749722123146057,0.0782845020294189,-0.2145500183105468,0.1531699448823928,-0.1927223056554794,-0.1401130855083465,jumping
1761304405147249200,-0.4439132809638977,-0.0433070659637451,-0.524322509765625,0.104302167892456,-0.2024958729743957,-0.0857476815581321,jumping
1761304405157385500,-0.6388086676597595,-0.1886851787567138,-0.5442028045654297,0.0255028735846281,-0.1169772520661354,-0.0295497365295887,jumping
1761304405167522000,-0.6023448705673218,-0.2761967182159424,-0.335270881652832,-0.0838387832045555,0.0534491352736949,0.0321458354592323,jumping
1761304405177658400,-0.5918906927108765,-0.3687548637390136,-0.0030784606933593,-0.1840177327394485,0.171419009566307,0.0596339628100395,jumping
1761304405187795000,-0.4553660154342651,-0.184006929397583,0.0148506164550781,-0.2102841734886169,0.2160108685493469,0.0541363395750522,jumping
1761304405197931500,-0.3079910278320312,-0.1525006294250488,0.3249664306640625,-0.1846285909414291,0.2056264579296112,0.0486387126147747,jumping
1761304405208067800,-0.2948352098464966,-0.2500534057617187,0.5954980850219727,-0.1320957243442535,0.2019613683223724,0.0425302386283874,jumping
1761304405218204400,-0.2162092924118042,-0.3103134632110595,0.912827491760254,-0.0673459097743034,0.1854684948921203,0.0382543094456195,jumping
1761304405228340700,-0.1572979688644409,-0.3247954845428467,0.8820285797119141,-0.0178672820329666,0.1268271654844284,0.0321458354592323,jumping
1761304405238477300,-0.1845555901527404,-0.2491118907928466,0.4959573745727539,0.0151184694841504,0.0204633828252553,0.026648212224245,jumping
1761304405248614000,-0.2479321956634521,-0.1641156673431396,0.2355852127075195,0.0419957488775253,-0.0375671051442623,0.0205397382378578,jumping
1761304405258750200,-0.2782875895500183,-0.1917743682861328,0.2655773162841797,0.0707055702805519,-0.0729962438344955,0.0113770300522446,jumping
1761304405268886800,-0.2592522501945495,-0.1171820163726806,0.2605295181274414,0.1030804738402366,-0.1133121699094772,-0.0032833039294928,jumping
1761304405279023000,-0.275857925415039,-0.0713939666748046,0.1510190963745117,0.1299577504396438,-0.1707318127155304,-0.0252738054841756,jumping
1761304405289159700,-0.3929803967475891,-0.0669822692871093,0.1208553314208984,0.1378987729549408,-0.1780619770288467,-0.037490751594305,jumping
1761304405299296300,-0.4764299392700195,-0.1407606601715088,0.2221937179565429,0.1305686086416244,-0.1236965730786323,-0.028938889503479,jumping
1761304405309432600,-0.4943752884864807,-0.2785508632659912,0.1506967544555664,0.1006370857357978,-0.0571142174303531,-0.0130568603053689,jumping
1761304405319569200,-0.4652398228645324,-0.2824053764343261,0.0956449508666992,0.0762031972408294,0.0131332157179713,-0.0124460132792592,jumping
1761304405329705500,-0.3305118680000305,-0.1830871105194091,0.2080392837524414,0.0713164210319519,0.0700183659791946,-0.0167219433933496,jumping
1761304405339842000,-0.2234072685241699,-0.1742191314697265,0.380767822265625,0.0920852273702621,0.1066692024469375,-0.0283280424773693,jumping
1761304405349978600,-0.1169934868812561,-0.138535737991333,0.4734249114990234,0.1391204595565796,0.095063105225563,-0.0472643077373504,jumping
1761304405360115000,-0.0789653658866882,-0.1023759841918945,0.3640909194946289,0.1861557066440582,0.0229067727923393,-0.0643680319190025,jumping
1761304405370251500,-0.0901092886924743,-0.0835077762603759,0.109201431274414,0.1922641694545745,-0.0479515083134174,-0.075974129140377,jumping
1761304405380387800,-0.0488945841789245,-0.0835363864898681,-0.0148210525512695,0.1635543555021286,-0.0766613334417343,-0.0765849724411964,jumping
1761304405390524400,-0.0870785117149353,-0.0742940902709961,-0.0726070404052734,0.1403421610593795,-0.1065928488969802,-0.0723090469837188,jumping
1761304405400661000,-0.0856960415840148,-0.0881097316741943,-0.1018133163452148,0.1305686086416244,-0.0894891247153282,-0.0631463378667831,jumping
1761304405420934000,-0.0160121321678161,-0.2304537296295166,0.5109291076660156,0.111021488904953,0.1085017472505569,-0.0155002493411302,jumping
1761304405431070200,-0.0271747112274169,-0.2692835330963135,0.3822803497314453,0.0908635333180427,0.1420983374118805,0.0089336410164833,jumping
1761304405441206800,-0.0904974937438964,-0.2459316253662109,-0.0847434997558593,0.0768140405416488,0.0834570080041885,0.0193180441856384,jumping
1761304405451343400,-0.166832149028778,-0.165886640548706,-0.6185235977172852,0.0438282899558544,0.0082464376464486,0.0260373651981353,jumping
1761304405461479700,-0.3494242429733276,-0.2414822578430175,-0.8257064819335938,-0.0209215190261602,-0.032069481909275,0.0352000743150711,jumping
1761304405471616300,-0.4880541563034057,-0.3961882591247558,-0.6308469772338867,-0.0697892978787422,-0.0216850768774747,0.0364217683672905,jumping
1761304405481752600,-0.5513238310813904,-0.4366893768310547,-0.0791082382202148,-0.0807845517992973,0.0314586348831653,0.0364217683672905,jumping
1761304405491889200,-0.5202949643135071,-0.4336705207824707,0.4385194778442383,-0.0587940476834774,0.0675749778747558,0.0205397382378578,jumping
1761304405502025700,-0.3205641508102417,-0.3906610012054443,0.532444953918457,-0.0038177953101694,0.0222959257662296,-0.0209978744387626,jumping
1761304405512162000,-0.0719602704048156,-0.0831375122070312,0.2171306610107422,0.0609320141375064,-0.019241688773036,-0.0735307410359382,jumping
1761304405522298600,-0.0805239677429199,-0.180631399154663,0.355961799621582,0.1104106456041336,-0.0357345640659332,-0.0839151442050933,jumping
1761304405532435000,-0.2303570508956909,-0.3579874038696289,0.3304252624511719,0.1256818175315857,-0.0595576092600822,-0.0729198902845382,jumping
1761304405542571500,-0.2607119083404541,-0.2695550918579101,0.1524066925048828,0.1348445266485214,-0.0931542068719863,-0.0710873529314994,jumping
1761304405552708000,-0.0812212228775024,-0.1247496604919433,-0.1719474792480468,0.1201841980218887,-0.1756185889244079,-0.075974129140377,jumping
1761304405562844400,0.0060027241706848,0.0091767311096191,-0.5561408996582031,0.0835333615541458,-0.2531961798667907,-0.0784175172448158,jumping
1761304405572981000,-0.0492663383483886,0.0197024345397949,-0.5878782272338867,0.016951011493802,-0.2764083743095398,-0.075974129140377,jumping
1761304405583117300,-0.1043991446495056,0.0274381637573242,-0.4015645980834961,-0.0331384651362896,-0.2305948436260223,-0.06986565887928,jumping
1761304405593254000,-0.1384971141815185,-0.1162428855895996,-0.0962190628051757,-0.0539072714745998,-0.1554606258869171,-0.0478751547634601,jumping
1761304405603390500,-0.2067352533340454,-0.2365789413452148,0.1172132492065429,-0.0526855774223804,-0.1133121699094772,-0.0240521114319562,jumping
1761304405613526800,-0.1510565876960754,-0.2717494964599609,0.0995063781738281,-0.036192700266838,-0.0748287886381149,-0.0026724566705524,jumping
1761304405623663400,-0.0597838759422302,-0.2661583423614502,0.1669979095458984,-0.0386360883712768,-0.0302369389683008,0.0101553360000252,jumping
1761304405633799700,-0.0736075639724731,-0.3338003158569336,0.2383298873901367,0.0419957488775253,-0.0577250644564628,0.0064902519807219,jumping
1761304405643936300,-0.0893160104751586,-0.4201059341430664,0.4751853942871094,-0.0539072714745998,0.0351237170398235,0.0370326153934001,jumping
