timestamp,acc_x,acc_y,acc_z,gyr_x,gyr_y,gyr_z,activity
1761304433742246700,0.0,0.0,0.0,,,,jumping
1761304433762519800,0.1474619507789611,-0.0420196056365966,0.2883548736572265,0.6772769093513489,-0.109036237001419,0.1628671437501907,jumping
1761304433792929300,0.1695952415466308,-0.3373656272888183,0.2527532577514648,1.1006704568862915,0.2844257652759552,0.2703762650489807,jumping
1761304433803065600,-0.0360529422760009,-0.5393807888031006,-0.0478477478027343,1.2717076539993286,0.3106921911239624,0.3210766017436981,jumping
1761304433813202000,0.1294639706611633,-0.4417660236358642,-0.1089239120483398,1.4885584115982056,0.3015294671058655,0.3332935273647308,jumping
1761304433823338500,0.3251792192459106,-0.2935929298400879,-0.1754312515258789,1.6449353694915771,0.253272533416748,0.3290176093578338,jumping
1761304433833474800,0.2509129643440246,-0.3026154041290283,-0.8474950790405273,1.64737868309021,-0.0180199947208166,0.3210766017436981,jumping
1761304433853747700,-0.3938027620315552,-0.7322440147399902,-0.8343524932861328,1.5704119205474854,-0.144465371966362,0.4572955369949341,jumping
1761304433863884300,-0.4488243460655212,-1.0559592247009275,-0.1868667602539062,1.5991218090057373,-0.0974301397800445,0.521434485912323,jumping
1761304433894293500,0.8847070932388306,0.0398230552673339,1.2929563522338867,2.1024599075317383,-0.268467366695404,0.1292705535888672,jumping
1761304433904430000,0.4255610108375549,-0.6981911659240723,1.4314193725585938,2.181869983673096,-0.138967752456665,0.0700183659791946,jumping
1761304433914566400,0.3357409536838531,-1.261976957321167,0.9333333969116212,2.241122245788574,-0.1695101112127304,0.0895654782652854,jumping
1761304433924702700,-0.2860216200351715,-1.5645899772644043,0.7343902587890625,2.475076675415039,-0.4437805414199829,0.2208976447582245,jumping
1761304433934839300,-1.7443946599960327,-1.8111224174499512,1.8229875564575195,2.853801965713501,-0.7937960028648376,0.4560738205909729,jumping
1761304433944975600,-2.939211368560791,-2.14312744140625,2.781704902648926,3.357140064239502,-1.0925003290176392,0.7095754742622375,jumping
1761304433955112200,-2.7602670192718506,-2.310208797454834,3.421686172485352,3.886210203170776,-1.2513206005096436,0.8989381194114685,jumping
1761304433965248500,-1.6479105949401855,-2.067782402038574,3.1494874954223637,4.3003644943237305,-1.3606622219085691,0.904435694217682,jumping
1761304433975385000,-0.0188371390104293,-1.373581886291504,2.300046920776367,4.499500751495361,-1.5243693590164185,0.6906391978263855,jumping
1761304433985521400,1.2053972482681274,-0.6346340179443359,0.883573055267334,4.492170810699463,-1.7454960346221924,0.3241308331489563,jumping
1761304433995658000,1.6160497665405271,-0.0972480773925781,0.135876178741455,4.340069770812988,-1.8120783567428589,-0.1077381819486618,jumping
1761304434005794300,2.3155360221862797,0.0036892890930175,-0.0977373123168945,4.0743513107299805,-1.7082343101501465,-0.560375988483429,jumping
1761304434015930600,3.427440643310547,0.0207161903381347,-0.4572973251342773,3.784198760986328,-1.2421579360961914,-0.8712972402572632,jumping
1761304434026067200,-1.2721450328826904,0.0368719100952148,-0.6355900764465332,3.366302967071533,-0.1805053651332855,-0.3117611706256866,jumping
1761304434036203500,-5.426632404327393,0.3064718246459961,-0.7740821838378906,2.7591207027435303,0.3583382666110992,0.0700183659791946,jumping
1761304434046340000,-1.921580791473389,-0.0127649307250976,-2.729520082473755,2.247230768203736,0.5006656646728516,0.0626882016658783,jumping
1761304434056476400,0.1877215504646301,-1.1448659896850586,-1.828575134277344,2.0285472869873047,0.7773795127868652,0.0975064933300018,jumping
1761304434066613000,-0.2451591044664383,-1.3664674758911133,-0.8258442878723145,1.994950771331787,1.1799278259277344,0.2581593096256256,jumping
1761304434076749300,-0.0353771857917308,-1.3049840927124023,-0.3077020645141601,2.040764331817627,1.424266695976257,0.357727438211441,jumping
1761304434086886000,0.6471312642097473,-1.0148138999938965,-0.5880718231201172,2.126893758773804,1.378453254699707,0.3534514904022217,jumping
1761304434097022200,0.424671471118927,-0.7671909332275391,-1.0448241233825684,2.184924364089966,1.1347250938415527,0.3565057218074798,jumping
1761304434107158800,-0.3413521647453308,-0.8844175338745117,-2.307690143585205,2.2130231857299805,0.655210018157959,0.4530195891857147,jumping
1761304434117295000,-0.9123247861862184,-1.244384765625,-3.4571638107299805,2.349853038787842,-0.0149657577276229,0.5696914196014404,jumping
1761304434127431400,-0.2951092720031738,-1.198293685913086,-3.0429673194885254,2.604576349258423,-0.4663818776607513,0.6203917264938354,jumping
1761304434137568000,1.154931664466858,-0.6447477340698242,-2.3375043869018555,2.8092103004455566,-0.6276455521583557,0.5971795320510864,jumping
1761304434147704300,2.0775671005249023,0.1823225021362304,-1.7108492851257324,2.807988405227661,-0.532353401184082,0.5483117699623108,jumping
1761304434157841000,2.2137858867645264,0.4832677841186523,-1.967197299003601,2.500732421875,-0.3038965165615082,0.5086066722869873,jumping
1761304434167977200,1.811434030532837,0.3886928558349609,-3.617481231689453,2.0071678161621094,-0.0045813545584678,0.4774535000324249,jumping
1761304434178113500,1.356412410736084,-0.1014776229858398,-3.9431419372558594,1.5569733381271362,0.232503741979599,0.4206447005271911,jumping
1761304434188250000,1.2438149452209473,0.1662559509277343,-3.618930339813232,1.3175212144851685,0.3003077805042267,0.3174115121364593,jumping
1761304434198386700,1.2641079425811768,0.2396869659423828,-2.796808958053589,1.264377474784851,0.1756949424743652,0.2160108685493469,jumping
1761304434208523000,0.7479779124259949,-0.0413236618041992,-2.710076093673706,1.3199645280838013,-0.0742179453372955,0.1744732409715652,jumping
1761304434218659300,-0.1288189888000488,-0.3776569366455078,-2.6258225440979004,1.3529503345489502,-0.2965663373470306,0.2129566222429275,jumping
1761304434228796000,-0.630516529083252,-0.6443853378295898,-2.2718522548675537,1.2943090200424194,-0.4352286756038666,0.2795389890670776,jumping
1761304434238932200,-0.710867166519165,-0.5919303894042969,-1.64288592338562,1.3230187892913818,-0.5390726923942566,0.306416243314743,jumping
1761304434249069600,-0.3369203805923462,-0.3458995819091797,-0.282565712928772,1.4531292915344238,-0.7369872331619263,0.2819823622703552,jumping
1761304434259206100,0.3913289904594421,0.0306940078735351,-0.1080957651138305,1.6327183246612549,-0.9074136018753052,0.2184542566537857,jumping
1761304434269342500,0.5621374249458313,0.3234434127807617,0.0123063325881958,1.7335081100463867,-0.901915967464447,0.1256054639816284,jumping
1761304434279479000,0.8104584217071533,0.1817817687988281,-0.1761451363563537,1.6669257879257202,-0.6355865597724915,0.0687966719269752,jumping
1761304434289615400,0.5796424746513367,-0.0370759963989257,-0.5286227464675903,1.4464099407196045,-0.3057290613651275,0.064520739018917,jumping
1761304434299752000,0.1718494892120361,-0.0902719497680664,-0.7493518590927124,1.181302189826965,-0.1255291104316711,0.0626882016658783,jumping
1761304434309888300,0.0612292289733886,-0.0880899429321289,-1.3292741775512695,0.8892409205436707,-0.0607793033123016,-0.0106134712696075,jumping
1761304434320024800,0.7904355525970459,-0.1015176773071289,-2.257361888885498,0.6650599241256714,0.1384332627058029,-0.1462215632200241,jumping
1761304434330161200,1.85522735118866,0.2357587814331054,-2.3518238067626958,0.4634803533554077,0.5977904200553894,-0.3349733650684356,jumping
1761304434340297700,2.238279342651367,0.7509040832519531,-2.609280586242676,0.1733279079198837,1.0149990320205688,-0.5304445028305054,jumping
1761304434350434300,2.2120304107666016,0.6339235305786133,-3.0259852409362797,-0.1962346881628036,1.2599488496780396,-0.7057576775550842,jumping
1761304434360570600,1.4946155548095703,0.6985836029052734,-2.840888261795044,-0.5071559548377991,1.3589060306549072,-0.8248728513717651,jumping
1761304434370707200,0.5064470171928406,0.2920360565185547,-1.6182854175567627,-0.6317687630653381,1.4358727931976318,-0.8670213222503662,jumping
1761304434380843500,-0.1321107149124145,-0.3832387924194336,0.1456702947616577,0.0383306667208671,1.2080267667770386,-0.7955521941184998,jumping
1761304434390980000,-0.9540616273880004,-1.4282407760620115,2.8697619438171387,1.226504921913147,0.4634039998054504,-0.5927509069442749,jumping
1761304434401116400,-1.883666038513184,-2.288630962371826,1.974827766418457,1.4671787023544312,-0.0351237170398235,-0.4253787696361542,jumping
1761304434421389300,-0.8650412559509277,-2.0601511001586914,-3.835407972335816,1.194740891456604,-1.767486572265625,-0.3569638729095459,jumping
1761304434431526000,0.4703898429870605,-0.3601999282836914,-5.529890537261963,0.4054498672485351,-0.8689302206039429,-0.1333937644958496,jumping
1761304434441662200,-1.7207928895950315,1.1059455871582031,-7.380350589752197,-0.3434488773345947,0.2685437202453613,0.1585912257432937,jumping
1761304434451798500,-0.0540092289447784,-0.0679140090942382,-2.900421142578125,-0.252432644367218,-0.1603474020957946,0.2740413546562195,jumping
1761304434461935000,0.7097040414810181,-0.5919723510742188,0.3102869987487793,-0.0752869248390197,-0.5036435723304749,0.3491755723953247,jumping
1761304434472071400,-0.2806076109409332,-0.3480710983276367,0.4928715825080871,-0.0923906490206718,-0.4169032573699951,0.4310291111469269,jumping
1761304434482208000,-0.6232942342758179,-0.5277576446533203,-1.1241376399993896,-0.1809635013341903,-0.2440334856510162,0.461571455001831,jumping
1761304434492344300,-0.0882315039634704,-0.9386711120605468,-0.6216583251953125,-0.1950129866600036,-0.144465371966362,0.491502970457077,jumping
1761304434502481000,-0.1661342084407806,-0.3188838958740234,0.8583579063415527,-0.2139492481946945,0.0993390381336212,0.4737884104251861,jumping
1761304434512617200,-0.4340281188488006,0.4058370590209961,1.0592024326324463,-0.284196674823761,0.2306711971759796,0.3943782746791839,jumping
1761304434522753500,0.197215735912323,1.1684818267822266,0.2891194522380829,-0.2970244884490967,0.3119138777256012,0.3448996245861053,jumping
1761304434532890000,0.7583085894584656,1.5973796844482422,-0.2692503929138183,-0.2878617644309997,0.278928130865097,0.255715936422348,jumping
1761304434543026400,1.1203694343566897,1.448500633239746,-1.5900338888168335,-0.2750339806079864,0.2447206825017929,0.1653105467557907,jumping
1761304434553163000,0.4096472859382629,0.3725166320800781,-0.8183516263961792,-0.173633337020874,0.2367796748876571,0.1622563004493713,jumping
1761304434563299300,-1.0391840934753418,-0.3822021484375,-0.1143291890621185,-0.1174353882670402,0.1976854503154754,0.2306711971759796,jumping
1761304434573436000,-1.2221941947937012,-0.7820615768432617,-0.4331933557987213,-0.0905581042170524,0.1885227411985397,0.283204048871994,jumping
1761304434583572200,-1.1658053398132324,-0.7603206634521484,-0.1146295815706253,-0.0887255668640136,0.2398339062929153,0.3479538559913635,jumping
1761304434593708800,-0.998280107975006,-0.3201618194580078,-0.4284234642982483,-0.1009425073862075,0.2850365936756134,0.3406237065792084,jumping
1761304434603845000,-0.1633327007293701,0.0768508911132812,-0.55706387758255,-0.0777303129434585,0.3369586169719696,0.3180223405361175,jumping
1761304434613981400,-0.8325919508934021,-0.0385808944702148,-0.4324648082256317,-0.0734543800354003,0.2654894888401031,0.4047626554965973,jumping
1761304434624118000,-0.4564452171325683,-0.4156646728515625,-0.5825967192649841,-0.0594048947095871,0.2636569440364837,0.3681118190288543,jumping
1761304434634254300,0.3792958259582519,0.4415178298950195,-0.4302007555961609,-0.0789520069956779,0.276484727859497,0.2715979516506195,jumping
1761304434644391000,1.18260395526886,0.9212989807128906,-0.2663072943687439,-0.1113269105553627,0.2880908250808716,0.1689756214618683,jumping
1761304434654527200,0.6012074947357178,0.7093715667724609,-0.2877354621887207,-0.1498102843761444,0.2606027126312256,0.172640711069107,jumping
1761304434664663800,-0.193582534790039,0.1336021423339843,-0.3000008463859558,-0.1766875684261322,0.2783172726631164,0.2416664510965347,jumping
1761304434674800000,-0.347574770450592,-0.1487550735473632,-0.3094942569732666,-0.1742441803216934,0.2661003470420837,0.2917559146881103,jumping
1761304434684936700,-0.3562520742416382,-0.0578889846801757,-0.4121251106262207,-0.143701821565628,0.1763057857751846,0.3485647141933441,jumping
1761304434695073000,-0.4348653554916382,-0.0882720947265625,-0.3922060430049896,-0.1009425073862075,0.0601684562861919,0.3858264088630676,jumping
1761304434705209300,0.1623790264129638,-0.0708255767822265,-0.268935352563858,-0.0881147161126136,0.0180199947208166,0.3870480954647064,jumping
1761304434715346000,0.4192016124725342,0.1189861297607421,-0.2548934817314148,-0.0972774252295494,0.0516165941953659,0.3406237065792084,jumping
1761304434725482200,1.4864070415496826,0.5394220352172852,-0.1483970582485199,-0.1107160672545433,0.118886150419712,0.1683647781610489,jumping
1761304434735618800,2.8620471954345703,0.9106578826904296,0.0384005606174469,-0.0984991192817688,0.1451525837182998,-0.017943637445569,jumping
1761304434745755100,1.8423192501068115,0.8442497253417969,-0.1780097484588623,-0.1345391124486923,0.1158319115638732,-0.0435992218554019,jumping
1761304434755891700,0.6874626874923706,0.3052816390991211,-0.62743079662323,-0.1455343663692474,0.0681858286261558,0.0132095720618963,jumping
1761304434766028000,0.3601424694061279,-0.22747802734375,0.0210424959659576,-0.150421142578125,-0.0198525357991457,0.0785702317953109,jumping
1761304434776164600,-0.0971192121505737,-0.1406202316284179,-0.7593724727630615,-0.1595838516950607,-0.0791047215461731,0.1060583516955375,jumping
1761304434786301000,0.6469448804855347,0.171788215637207,-0.1581880152225494,-0.1742441803216934,-0.1053711548447609,0.0125987250357866,jumping
1761304434796437500,0.9515880346298218,0.112192153930664,-0.3561980426311493,-0.196845531463623,-0.160958245396614,-0.1022405624389648,jumping
1761304434806573800,0.7626206874847412,-0.1006326675415039,-0.273927628993988,-0.173633337020874,-0.2434226274490356,-0.2512872815132141,jumping
1761304434816710100,0.7092057466506958,-0.4859609603881836,-0.0501162260770797,-0.1754658818244934,-0.2635805904865265,-0.3587964177131653,jumping
1761304434826846700,0.2768505811691284,-0.8251667022705078,0.0153986811637878,-0.2170034945011139,-0.2403683960437774,-0.3832302987575531,jumping
1761304434836983000,-0.372247040271759,-0.6382179260253906,-0.1961123347282409,-0.2744231224060058,-0.2122694253921508,-0.3087069392204284,jumping
1761304434847119600,-0.9854254722595216,-0.501591682434082,-0.2432222366333007,-0.3025220930576324,-0.1487413048744201,-0.2262425571680069,jumping
1761304434857256000,-0.6622373461723328,-0.0903491973876953,-0.2111389935016632,-0.3141281902790069,-0.0894891247153282,-0.1853157877922058,jumping
1761304434867392500,-0.964142680168152,0.0543098449707031,-0.359411746263504,-0.3110739588737488,-0.0894891247153282,-0.1559951156377792,jumping
1761304434877528800,-0.8293811082839966,0.2434730529785156,-0.2926332354545593,-0.305576354265213,-0.0632226914167404,-0.1046839505434036,jumping
1761304434887665400,-0.7638665437698364,0.374363899230957,-0.3248712718486786,-0.3147390484809875,-0.0455081202089786,-0.0881910696625709,jumping
1761304434897801700,-0.5840902328491211,0.3857240676879883,-0.394341230392456,-0.3067980408668518,-0.0216850768774747,-0.0729198902845382,jumping
1761304434907938000,-0.2470743656158447,0.5084123611450195,-0.3637238442897796,-0.3037438094615936,0.0186308417469263,-0.0936886966228485,jumping
1761304434918074600,-0.0639393329620361,0.4019851684570312,-0.5266300439834595,-0.3129065036773681,0.0247393138706684,-0.1272853016853332,jumping
1761304434928211200,-0.1201801896095275,0.2631425857543945,-0.6644722819328308,-0.3110739588737488,0.0418430380523204,-0.1462215632200241,jumping
1761304434938347500,0.0817358493804931,0.212982177734375,-0.5464406609535217,-0.3013004064559936,0.0607793033123016,-0.182872399687767,jumping
1761304434958620400,0.0534613132476806,-0.2530813217163086,-0.5229653120040894,-0.3110739588737488,0.0577250644564628,-0.1871483325958252,jumping
1761304434968756700,-0.0976620316505432,-0.4051713943481445,-0.3568787574768066,-0.30740886926651,0.0577250644564628,-0.1559951156377792,jumping
1761304434978893300,-0.0523543953895568,-0.3800735473632812,-0.2008244395256042,-0.298857033252716,0.0589467622339725,-0.1364480108022689,jumping
1761304434989029600,0.0146993994712829,-0.2004604339599609,-0.091543972492218,-0.2762556672096252,0.0816244632005691,-0.0936886966228485,jumping
1761304434999166200,0.0219322443008422,-0.1027822494506836,-0.210342526435852,-0.2707580327987671,0.0565033704042434,-0.0716981962323188,jumping
1761304435009302500,-0.0134603977203369,-0.1243143081665039,-0.2383633852005005,-0.2768665254116058,0.038177952170372,-0.0503185428678989,jumping
1761304435019439000,-0.0135913491249084,-0.0529680252075195,-0.0611258149147033,-0.2689255177974701,0.038177952170372,-0.0435992218554019,jumping
1761304435029575400,0.1076913475990295,0.0464057922363281,0.0192334651947021,-0.2719797492027282,0.0571142174303531,-0.0448209159076213,jumping
1761304435039711700,0.1853423714637756,-0.0068635940551757,0.0171393156051635,-0.282364159822464,0.0632226914167404,-0.0448209159076213,jumping
1761304435049848300,0.2016831636428833,0.0142955780029296,-0.0628513693809509,-0.2994678616523742,0.0877329409122467,-0.028938889503479,jumping
1761304435059985000,0.213958740234375,0.0069446563720703,-0.027485966682434,-0.3159607350826263,0.095063105225563,-0.0362690575420856,jumping
1761304435070121200,0.1863983273506164,-0.0120458602905273,-0.1793146133422851,-0.333064466714859,0.0895654782652854,-0.0429883748292923,jumping
1761304435080257500,0.1882946491241455,-0.0641136169433593,-0.1993662714958191,-0.3324536085128784,0.10117157548666,-0.0490968488156795,jumping
1761304435090394000,0.1448667049407959,-0.1369562149047851,-0.0753025412559509,-0.3410054743289947,0.1176644563674926,-0.0454317666590213,jumping
1761304435100530400,0.1386834979057312,-0.1588983535766601,-0.0923258662223815,-0.3642176687717438,0.1280488520860672,-0.0326039716601371,jumping
1761304435110667000,0.111084759235382,-0.1377677917480468,-0.1780983209609985,-0.3599417507648468,0.1689756214618683,-0.0271063465625047,jumping
1761304435120803300,-0.0238918662071228,-0.1570358276367187,0.2076253890991211,-0.356276661157608,0.1763057857751846,-0.0191653333604335,jumping
1761304435130940000,-0.1214728355407714,-0.2873945236206054,0.0090091228485107,-0.3782671689987182,0.124994620680809,-0.0075592347420752,jumping
1761304435141076200,-0.188523530960083,-0.2762393951416015,-0.5431901812553406,-0.3898732662200928,0.0993390381336212,0.0009926267666742,jumping
1761304435151212800,-0.0412595272064209,-0.3150405883789062,-0.3347746133804321,-0.3837648034095764,0.0785702317953109,-0.0002290677221026,jumping
1761304435161349000,0.0752596259117126,-0.3629655838012695,-0.2974081039428711,-0.3892624080181122,0.1078908964991569,-0.0087809292599558,jumping
1761304435171485400,0.1169151663780212,-0.4555320739746094,-0.1386538743972778,-0.4057552814483642,0.149428516626358,-0.0240521114319562,jumping
1761304435181622000,0.0049495100975036,-0.5658969879150391,-0.1086786985397338,-0.4460712075233459,0.1689756214618683,-0.0332148186862468,jumping
1761304435191758600,-0.1029515862464904,-0.8129005432128906,-0.226758599281311,-0.4735593497753143,0.1921878159046173,-0.0387124456465244,jumping
1761304435201895000,-0.0968373417854309,-1.0196619033813477,-0.2615143060684204,-0.5034908652305603,0.2202867865562439,-0.0497076958417892,jumping
1761304435212031200,-0.1385014653205871,-1.2532072067260742,-0.3465778827667236,-0.5089884996414185,0.2380013614892959,-0.0442100688815116,jumping
1761304435222167800,-0.2310219407081604,-1.5157594680786133,-0.502286434173584,-0.511431872844696,0.2086806893348693,-0.0350473597645759,jumping
1761304435232304000,-0.4624039828777313,-1.873246192932129,-0.6345628499984741,-0.5303681492805481,0.1708081662654876,0.0009926267666742,jumping
1761304435242440700,-0.548001766204834,-2.220514297485352,-0.6957942247390747,-0.5450284481048584,0.1561478376388549,0.032756682485342,jumping
1761304435252577000,-0.4301930665969848,-2.4918441772460938,-0.7183253765106201,-0.51998370885849,0.1420983374118805,0.0486387126147747,jumping
1761304435262713600,-0.3653151988983154,-2.7738332748413086,-0.5178813934326172,-0.4778352677822113,0.1524827480316162,0.0492495596408844,jumping
1761304435272850000,-0.3759211897850036,-3.137159824371338,-0.3391242027282715,-0.4686725735664367,0.1457634270191192,0.0626882016658783,jumping
1761304435282986500,-0.4870464205741882,-3.000847816467285,-0.5825374126434326,-0.4717268049716949,0.1286597102880478,0.0675749778747558,jumping
1761304435293122800,-0.3954647779464721,-2.6224536895751958,-0.8565312623977661,-0.4906630516052246,0.0791810750961303,0.0608556568622589,jumping
1761304435303259100,-0.2740009427070617,-2.388960361480713,-1.0246033668518066,-0.5004366040229797,0.0430647321045398,0.0590231157839298,jumping
1761304435313395700,-0.1517142653465271,-2.460893154144287,-1.09104585647583,-0.5218162536621094,0.0216850768774747,0.0632990449666976,jumping
1761304435323532000,-0.01840341091156,-2.5603199005126958,-1.0735621452331543,-0.5450284481048584,0.027793550863862,0.0657424330711364,jumping
1761304435333668600,0.1281766891479492,-2.646650791168213,-0.8867154121398926,-0.5639647245407104,0.0442864261567592,0.071240060031414,jumping
1761304435343805000,0.2729888558387756,-2.693846702575684,-0.737852931022644,-0.5761816501617432,0.0565033704042434,0.0834570080041885,jumping
1761304435353941500,0.3176952600479126,-2.833573341369629,-0.6522351503372192,-0.5578562617301941,0.0473406612873077,0.0999498814344406,jumping
1761304435364077800,0.313570499420166,-3.0266804695129395,-0.6929218769073486,-0.5554128885269165,0.0516165941953659,0.1378224194049835,jumping
1761304435374214400,0.3785204291343689,-3.092739582061768,-0.5828655958175659,-0.5254813432693481,0.0442864261567592,0.1622563004493713,jumping
1761304435384350700,0.6208413243293762,-2.9537367820739746,-0.455841064453125,-0.5175403356552124,0.032069481909275,0.1677539348602295,jumping
1761304435394487300,0.5410301685333252,-2.7109575271606445,-0.7797980308532715,-0.5004366040229797,0.0125223686918616,0.1836359500885009,jumping
1761304435404623600,0.4929237365722656,-2.424611091613769,-0.859113335609436,-0.4790569543838501,-0.0143549107015132,0.2007396817207336,jumping
1761304435414760200,0.3877848386764526,-2.0714426040649414,-0.8211395740509033,-0.4558447599411011,-0.0503949001431465,0.1946312040090561,jumping
1761304435424896500,0.2862112522125244,-1.6073331832885742,-0.5714893341064453,-0.4075878262519836,-0.0876565799117088,0.179360032081604,jumping
1761304435435033000,-0.0788865685462951,-1.087672233581543,-0.308837890625,-0.3593308925628662,-0.1359135210514068,0.1665322333574295,jumping
1761304435445169400,-0.2200373411178589,-0.4865779876708984,0.0187335014343261,-0.3141281902790069,-0.1762294322252273,0.1506502032279968,jumping
1761304435455305700,-0.2624794840812683,0.1813983917236328,0.3482599258422851,-0.2738122940063476,-0.19211146235466,0.142709195613861,jumping
1761304435465442300,-0.0987064838409423,0.996943473815918,0.6288034915924072,-0.2420482337474823,-0.19211146235466,0.1280488520860672,jumping
1761304435475578600,0.0538524389266967,1.8304204940795896,0.7591698169708252,-0.1974563747644424,-0.1664558798074722,0.1164427623152732,jumping
1761304435485715200,0.2215555906295776,2.60080623626709,0.7664124965667725,-0.1522536724805832,-0.1371352076530456,0.1048366576433181,jumping
1761304435495851500,0.3075350522994995,3.277742385864258,0.6369802951812744,-0.1088835224509239,-0.1249182671308517,0.1060583516955375,jumping
1761304435505988000,0.2939910888671875,3.828536987304688,0.6363706588745117,-0.0612374395132064,-0.1218640282750129,0.1225512325763702,jumping
1761304435516124400,0.452554702758789,4.170849800109863,0.8822159767150879,-0.0203106720000505,-0.1133121699094772,0.1439308822154998,jumping
1761304435526261000,0.5970954895019531,4.205424308776856,1.2436950206756592,0.0395523607730865,-0.0839914977550506,0.1653105467557907,jumping
1761304435536397300,0.561522364616394,4.1384992599487305,1.5208427906036377,0.1024696305394172,-0.0821589529514312,0.1738623976707458,jumping
1761304435546534000,0.5612262487411499,4.154128074645996,1.5980613231658936,0.1440072357654571,-0.0894891247153282,0.1524827480316162,jumping
1761304435556670200,0.5945634841918945,4.218435287475586,1.607255220413208,0.1824906170368194,-0.1047603040933609,0.118886150419712,jumping
1761304435566806800,0.4948600530624389,4.350220680236816,1.584404468536377,0.2209739983081817,-0.1096470803022384,0.0865112394094467,jumping
1761304435576943000,0.6065986156463623,4.625116348266602,1.494271993637085,0.266176700592041,-0.0882674306631088,0.0516929477453231,jumping
1761304435587079400,0.5860872268676758,4.923104286193848,1.3641023635864258,0.319320410490036,-0.0613901503384113,0.0150421140715479,jumping
1761304435597216000,0.6979533433914185,5.479696273803711,1.263976812362671,0.3797942698001861,-0.0418430380523204,-0.0191653333604335,jumping
1761304435607352300,0.4296633005142212,5.860306739807129,1.299421310424805,0.4482091665267944,-0.0314586348831653,-0.0313822776079177,jumping
1761304435617489000,0.2392541170120239,6.271156311035156,1.3188841342926023,0.5056288242340088,-0.0326803289353847,-0.0338256657123565,jumping
1761304435627625200,-0.0564496517181396,6.659782409667969,1.2769782543182373,0.5593833923339844,-0.0375671051442623,-0.0435992218554019,jumping
1761304435637761800,-0.0625046491622924,7.159427642822266,1.293729543685913,0.6198572516441345,-0.0369562581181526,-0.0674222633242607,jumping
1761304435647898000,-0.0543644428253173,7.584014892578125,1.270768404006958,0.6748335361480713,-0.0375671051442623,-0.0906344652175903,jumping
1761304435658034700,-0.0228102207183837,7.906394004821777,1.161604642868042,0.6907155513763428,-0.0259610079228878,-0.1083490327000618,jumping
1761304435668171000,0.2040725946426391,8.082072257995605,1.1632916927337646,0.6980457305908203,0.0064138961024582,-0.1272853016853332,jumping
1761304435678307600,0.3059412240982055,8.042302131652832,1.1704939603805542,0.7291989326477051,0.0326803289353847,-0.1456107199192047,jumping
1761304435688444000,0.5435104370117188,7.817104339599609,1.47456693649292,0.7481352090835571,0.0920088663697242,-0.1621035933494568,jumping
1761304435698580500,0.7341692447662354,7.677194595336914,1.78563392162323,0.7383615970611572,0.1317139416933059,-0.1737096905708313,jumping
1761304435708716800,0.6635291576385498,7.638909339904785,1.812475562095642,0.718814492225647,0.1420983374118805,-0.188370019197464,jumping
1761304435718853000,0.7136343717575073,7.596654891967773,1.7391787767410278,0.7163711190223694,0.1579803675413131,-0.1981435865163803,jumping
1761304435728989700,0.7314437627792358,7.545731544494629,2.0726089477539062,0.7200362086296082,0.1078908964991569,-0.1957001835107803,jumping
1761304435739126000,0.7735246419906616,7.753142356872559,1.73588228225708,0.7182036638259888,0.0565033704042434,-0.1853157877922058,jumping
1761304435749262600,0.8561563491821289,7.873513221740723,1.3446173667907717,0.7878402471542358,0.0039705070666968,-0.1718771457672119,jumping
1761304435759399000,0.91414475440979,7.789837837219238,1.3364940881729126,0.937497854232788,-0.0870457366108894,-0.1333937644958496,jumping
1761304435769535500,0.8268494606018066,7.489041328430176,1.2531052827835083,1.125104308128357,-0.1102579310536384,-0.0680331140756607,jumping
1761304435779671800,0.5936123132705688,7.008594512939453,1.2579991817474363,1.3254622220993042,-0.1041494607925415,0.0144312661141157,jumping
1761304435789808400,0.562089204788208,6.770058631896973,1.1837756633758545,1.4335821866989136,-0.0644443854689598,0.0620773509144783,jumping
1761304435799944700,0.4943183660507202,6.694357872009277,0.8041324615478516,1.466567873954773,-0.0442864261567592,0.071240060031414,jumping
1761304435810081300,0.4260672330856323,6.382992744445801,0.6129448413848877,1.4671787023544312,-0.0448972731828689,0.056579727679491,jumping
1761304435820217600,0.3251264095306396,5.212867736816406,0.4722062945365906,1.411591649055481,-0.0363454110920429,0.0089336410164833,jumping
1761304435830354200,0.3680275678634643,3.509768486022949,0.2823664546012878,1.2979741096496582,-0.016798298805952,-0.0387124456465244,jumping
1761304435840490500,0.28899085521698,1.2780838012695312,0.0337665677070617,1.1373212337493896,0.0003054236294701,-0.1034622564911842,jumping
1761304435850626800,0.6443233489990234,-1.089700698852539,-0.1446364521980285,0.9161182045936584,0.0656660795211792,-0.1950893402099609,jumping
1761304435860763400,0.9029600620269777,-3.646036148071289,-0.1594594717025756,0.6839962005615234,0.1592020690441131,-0.2867164313793182,jumping
1761304435870899700,0.949950098991394,-6.199665069580078,0.0818374454975128,0.4775298535823822,0.2465532273054123,-0.3471903204917907,jumping
1761304435881036300,0.568392276763916,-8.64106559753418,0.0213799029588699,0.2954973578453064,0.2746522128582001,-0.3765109777450561,jumping
1761304435891172600,0.0288808345794677,-10.544021606445312,-0.0359905660152435,0.1812689304351806,0.2294494956731796,-0.3551313281059265,jumping
1761304435901309200,0.0600921511650085,-10.497842788696287,-0.0265992507338523,0.1018587797880172,0.1390441060066223,-0.2995442152023315,jumping
1761304435911445500,-1.0641593933105469,-12.988978385925291,-0.2808380722999573,0.0328330397605896,0.0418430380523204,-0.2140256017446518,jumping
1761304435921582000,-1.330909252166748,-13.547545433044434,-0.5515027642250061,-0.0300842281430959,-0.0442864261567592,-0.1621035933494568,jumping
1761304435931718400,-1.0547122955322266,-13.362466812133787,-0.6433491110801697,-0.0923906490206718,-0.0943759009242057,-0.1480541080236435,jumping
1761304435941855000,-1.02945876121521,-13.121278762817385,-0.6718195080757141,-0.1540862172842025,-0.1059819981455802,-0.1547734290361404,jumping
1761304435951991300,-1.188733696937561,-12.571667671203612,-0.6441099643707275,-0.2133384048938751,-0.1096470803022384,-0.1706554591655731,jumping
1761304435962128000,-1.3944804668426514,-11.724410057067873,-0.4652307033538818,-0.2738122940063476,-0.1108687743544578,-0.1767639219760894,jumping
1761304435972264200,-1.633277177810669,-10.747507095336914,-0.5455783605575562,-0.3342861533164978,-0.1298050433397293,-0.1724879890680313,jumping
1761304435982400500,-1.4435237646102903,-9.672426223754885,-0.4446966648101806,-0.362995982170105,-0.1414111405611038,-0.1590493619441986,jumping
1761304435992537000,-1.3167821168899536,-9.042886734008787,-0.341306209564209,-0.3825430870056152,-0.1432436853647232,-0.1346154659986496,jumping
1761304436002673400,-1.0918447971343994,-8.635333061218262,-0.3010501563549042,-0.3892624080181122,-0.1218640282750129,-0.1217876747250557,jumping
1761304436012810000,-0.7390227913856506,-8.439366340637207,-0.2680010199546814,-0.3880407214164734,-0.1053711548447609,-0.1242310628294944,jumping
1761304436022946300,-0.3734869360923767,-8.416082382202148,-0.1773589998483657,-0.3825430870056152,-0.0876565799117088,-0.1486649513244629,jumping
1761304436033083000,-0.0064617395401,-8.614794731140137,-0.0848373770713806,-0.3831539452075958,-0.0638335421681404,-0.1804290115833282,jumping
1761304436043219200,-0.0764349699020385,-9.081998825073242,-0.1818038523197174,-0.3923166394233703,-0.0607793033123016,-0.1895917207002639,jumping
1761304436053355800,-0.2710991501808166,-9.601792335510254,-0.342638224363327,-0.4185830950736999,-0.0729962438344955,-0.1804290115833282,jumping
1761304436063492000,-0.3937183916568756,-10.052258491516112,-0.5050793886184692,-0.4448495209217071,-0.0827698037028312,-0.1541625708341598,jumping
1761304436073628400,-0.567672610282898,-10.419445037841797,-0.504421055316925,-0.4454603493213653,-0.1102579310536384,-0.1132358089089393,jumping
1761304436083765000,-0.6126059293746948,-10.567737579345703,-0.5043476223945618,-0.4546230733394623,-0.1261399537324905,-0.060702946037054,jumping
1761304436093901300,-0.6227465867996216,-10.63383674621582,-0.5988674163818359,-0.4753918647766113,-0.1487413048744201,-0.0008399150101467,jumping
1761304436104038000,-0.6368680000305176,-10.53456974029541,-0.726021945476532,-0.4998257756233215,-0.1542389392852783,0.0657424330711364,jumping
1761304436114174200,-0.5921508073806763,-10.320619583129885,-0.7270652055740356,-0.5346440672874451,-0.133470132946968,0.126216322183609,jumping
1761304436124310800,-0.4889458417892456,-9.961528778076172,-0.7315704226493835,-0.5743491649627686,-0.1304158866405487,0.1616454571485519,jumping
1761304436134447000,-0.4480270147323608,-9.486493110656738,-0.5894153118133545,-0.6158867478370667,-0.1346918195486068,0.1854684948921203,jumping
1761304436144583700,-0.4764488935470581,-8.893247604370117,-0.375292420387268,-0.6855233311653137,-0.1395785957574844,0.2111240774393081,jumping
1761304436154720000,-0.7144849300384521,-7.794239044189453,-0.2392956018447876,-0.7001836895942688,-0.1505738496780395,0.2092915475368499,jumping
1761304436164856600,-1.0123580694198608,-5.804579734802246,0.9340922832489014,-0.7759287357330322,-0.197609081864357,0.2172325551509857,jumping
1761304436174993000,-0.8725141882896423,-3.9356436729431152,0.1223142147064209,-0.9261971712112428,-0.2043284028768539,0.1873010396957397,jumping
1761304436185129200,-0.6130056977272034,-1.3829240798950195,-0.495385468006134,-0.9304730892181396,-0.2159345000982284,0.094452254474163,jumping
1761304436195265800,-0.6440000534057617,1.1039915084838867,0.6572959423065186,-0.8883246183395386,-0.1505738496780395,0.0071010994724929,jumping
1761304436205402000,-0.857661247253418,3.0945186614990234,1.422018051147461,-0.8748859763145447,-0.0644443854689598,-0.0429883748292923,jumping
1761304436215538700,-0.9840287566184998,5.446712493896484,1.5217307806015017,-0.8376243114471436,-0.0571142174303531,-0.0490968488156795,jumping
1761304436225675000,-1.3852441310882568,7.728856086730957,1.3773905038833618,-0.6910209655761719,-0.1371352076530456,0.0284807533025741,jumping
1761304436235811600,-1.7220618724822998,9.491997718811035,1.381824970245361,-0.4863871335983276,-0.2556395828723907,0.1292705535888672,jumping
1761304436245948000,-0.708642840385437,10.760936737060549,0.9965372085571288,-0.3892624080181122,-0.2171562016010284,0.1940203607082367,jumping
1761304436256084500,0.7179678082466125,11.567737579345703,0.7330689430236816,-0.3868190348148346,-0.0284043978899717,0.2520508468151092,jumping
1761304436266220800,1.623448133468628,11.768303871154783,1.1592713594436646,-0.3452814221382141,0.1970745921134948,0.3216874301433563,jumping
1761304436276357400,1.934938073158264,10.758146286010742,1.856387495994568,-0.2420482337474823,0.3693335354328155,0.3681118190288543,jumping
1761304436286493700,1.8325088024139404,9.62299633026123,2.051977634429932,-0.1852394342422485,0.4487436711788177,0.4102602899074554,jumping
1761304436296630300,1.3927489519119265,8.912062644958496,1.5491828918457031,-0.1785201132297516,0.3778853714466095,0.387658953666687,jumping
1761304436306766600,1.5982872247695925,9.009211540222168,0.9737199544906616,-0.1754658818244934,0.2178433984518051,0.2838149070739746,jumping
1761304436316903000,2.16019344329834,8.830597877502441,1.0657036304473877,-0.1614163815975189,0.1139993667602539,0.1677539348602295,jumping
1761304436327039500,2.9114532470703125,7.857519149780273,1.8270772695541384,-0.1455343663692474,0.0558925233781337,0.0724617540836334,jumping
1761304436337175800,3.042431116104126,6.590810775756836,1.3018649816513062,-0.2005106061697006,0.071850910782814,0.022372281178832,jumping
1761304436347312400,2.710707187652588,5.581721305847168,0.4635279178619385,-0.1986780762672424,0.1213295385241508,0.0028251686599105,jumping
1761304436357448700,2.092038154602051,4.716482162475586,0.6199367046356201,-0.1553079187870025,0.1115559786558151,-0.0020616094116121,jumping
1761304436367585300,0.5999881029129028,4.084490776062012,0.0823403596878051,-0.0783411636948585,0.0675749778747558,-0.0051158457063138,jumping
1761304436377721600,-0.492486298084259,4.226027488708496,0.0294960737228393,-0.0025961007922887,-0.0180199947208166,-0.0258846525102853,jumping
1761304436387858200,-1.1085737943649292,4.80416202545166,-0.0729200839996337,0.0670404881238937,-0.0974301397800445,-0.0668114200234413,jumping
1761304436397994500,-1.220957636833191,5.492820739746094,0.3145118951797485,0.1452289372682571,-0.1175880953669548,-0.1010188683867454,jumping
1761304436408130800,-1.142059326171875,6.046365737915039,0.4478505849838257,0.2209739983081817,-0.1224748790264129,-0.1022405624389648,jumping
1761304436418267400,-0.9908567667007446,6.473166465759277,0.4699318408966064,0.2881672084331512,-0.0815481096506118,-0.0552053228020668,jumping
1761304436428403700,-0.6696295738220215,6.67086124420166,0.6977105140686035,0.376740038394928,0.0015271181473508,-0.0026724566705524,jumping
1761304436438540300,0.0275576114654541,6.948524475097656,0.8505147695541382,0.4335488379001617,0.1072800531983375,0.0382543094456195,jumping
1761304436448676600,0.8091086149215698,7.146270751953125,0.66361403465271,0.4610369801521301,0.1964637488126754,0.0425302386283874,jumping
1761304436458813200,1.4627563953399658,7.207138061523437,0.6044282913208008,0.4701996743679046,0.2422772943973541,0.0107661830261349,jumping
1761304436468949500,1.929024338722229,7.315206527709961,0.7458380460739136,0.4665345847606659,0.2221193313598632,-0.0533727779984474,jumping
1761304436479086000,2.1806862354278564,7.467814445495605,1.1803789138793943,0.4628695249557495,0.178138330578804,-0.1278961449861526,jumping
1761304436489222400,2.336916446685791,7.593358993530273,1.5610793828964231,0.4598152637481689,0.1445417255163192,-0.1908134073019027,jumping
1761304436509495300,2.12377405166626,8.0847806930542,1.1254677772521973,0.4372139275074005,0.0638335421681404,-0.2024195045232772,jumping
1761304436519631600,1.745417594909668,8.31919002532959,0.8823233842849731,0.4524851143360138,0.0363454110920429,-0.152940884232521,jumping
1761304436529768200,1.446662664413452,8.536346435546875,0.9388561248779296,0.5031854510307312,0.023517619818449,-0.0778066664934158,jumping
1761304436539904500,1.2543532848358154,8.707396507263184,0.9804651737213136,0.589314877986908,-0.0045813545584678,0.009544488042593,jumping
1761304436550041000,1.043098211288452,8.922222137451172,0.9766632318496704,0.7487460374832153,-0.0479515083134174,0.0804027691483497,jumping
1761304436560177400,1.026288390159607,8.88013744354248,1.066328763961792,0.9100096821784972,-0.0925433561205864,0.1176644563674926,jumping
1761304436570314000,1.1818772554397583,9.34132480621338,1.2330703735351562,1.0535588264465332,-0.1267508119344711,0.1555369794368744,jumping
1761304436580450300,1.3332266807556152,9.376254081726074,1.3834131956100464,1.1971843242645264,-0.1279724985361099,0.1689756214618683,jumping
1761304436590587000,1.7105878591537476,9.16530704498291,1.6300469636917114,1.366999864578247,-0.1353026628494262,0.1469851285219192,jumping
1761304436600723200,2.0289196968078613,8.290369033813477,1.6387443542480469,1.5178791284561155,-0.0974301397800445,0.1323247849941253,jumping
1761304436610859800,1.9927257299423216,6.812021255493164,1.7260804176330566,1.655930519104004,-0.0345128700137138,0.1402658075094223,jumping
1761304436620996000,1.9391664266586304,4.75031852722168,1.7176270484924316,1.7029658555984497,0.0308477859944105,0.1738623976707458,jumping
1761304436631132400,1.897744059562683,2.484607696533203,0.778037428855896,1.582628846168518,0.0755159929394722,0.1970745921134948,jumping
1761304436641269000,1.9216867685317995,-0.1120433807373046,0.3635033071041107,1.3981530666351318,0.1372115612030029,0.1659213900566101,jumping
1761304436651405300,1.6849154233932495,-3.455491065979004,0.3521688580513,1.1373212337493896,0.178138330578804,0.0553580336272716,jumping
1761304436661542000,0.7968010902404785,-7.303768157958984,-0.2230967730283737,0.8544226288795471,0.1763057857751846,-0.098575472831726,jumping
1761304436671678200,-0.2243085503578186,-10.954344749450684,-0.8209565281867981,0.659562349319458,0.1237729266285896,-0.2592283189296722,jumping
1761304436681814800,-1.4658585786819458,-13.81764793395996,-0.7267134189605713,0.5642701387405396,0.0296260919421911,-0.3306974470615387,jumping
1761304436691951000,-2.8589837551116943,-15.61395263671875,-0.2666725516319275,0.453095942735672,-0.0491732060909271,-0.2995442152023315,jumping
1761304436702087700,-3.622560977935791,-15.955609321594238,-0.2637262046337127,0.2906105816364288,-0.0864348858594894,-0.2268534004688263,jumping
1761304436712224000,-3.089712619781494,-14.852964401245115,-0.4294736981391907,0.1122431829571724,-0.08582404255867,-0.1877591758966446,jumping
1761304436722360600,-2.5807247161865234,-13.310736656188965,-0.5557925701141357,-0.0435228683054447,-0.0723854005336761,-0.1602710485458374,jumping
1761304436732497000,-2.211444854736328,-11.821685791015623,-0.1728453934192657,-0.1730224788188934,-0.0076355906203389,-0.1205659806728363,jumping
1761304436742633200,-1.9486521482467647,-10.953323364257812,0.0460081100463867,-0.2921377122402191,0.0528382882475853,-0.0735307410359382,jumping
1761304436752769800,-1.9386589527130127,-10.91831398010254,0.0033893883228302,-0.4136963188648224,0.1085017472505569,-0.0381015986204147,jumping
1761304436762906400,-1.2417197227478027,-9.671252250671388,0.0466742366552352,-0.5065450668334961,0.1701973229646682,-0.0136677073314785,jumping
1761304436773042700,-1.019281268119812,-9.778609275817873,0.2508097887039184,-0.5401417016983032,0.2215084880590438,0.0071010994724929,jumping
1761304436783179000,-0.6961470246315002,-9.98073959350586,0.5521304607391357,-0.5376983284950256,0.2642678022384643,0.0193180441856384,jumping
1761304436793315600,-0.4407256543636322,-10.217808723449709,0.5595415830612183,-0.5541911721229553,0.3027511835098266,0.0187071971595287,jumping
1761304436803452000,-0.3740806579589844,-10.265630722045898,0.354063868522644,-0.5865660905838013,0.2899233698844909,-0.0093917762860655,jumping
1761304436813588500,-0.3615686297416687,-10.372983932495115,0.1812972128391266,-0.6036698222160339,0.2795389890670776,-0.0417666807770729,jumping
1761304436823724800,-0.5943180322647095,-10.708813667297363,0.131867378950119,-0.6213843822479248,0.2581593096256256,-0.046042613685131,jumping
1761304436833861400,-0.9120572805404664,-10.823700904846191,0.1197295635938644,-0.6378772258758545,0.2227301746606826,-0.0466534607112407,jumping
1761304436843997700,-1.031826376914978,-10.637145042419434,-0.0438502877950668,-0.6329904794692993,0.1646996885538101,-0.0350473597645759,jumping
1761304436854134300,-1.0755609273910522,-10.493672370910645,-0.0194343626499176,-0.598783016204834,0.1457634270191192,-0.0026724566705524,jumping
1761304436864270600,-1.1098591089248655,-10.230957984924316,-0.0611496865749359,-0.5700731873512268,0.1274380087852478,0.0248156692832708,jumping
1761304436874407000,-1.0982623100280762,-9.751651763916016,-0.1855642348527908,-0.5419742465019226,0.1078908964991569,0.0449736304581165,jumping
1761304436884543500,-1.0864691734313965,-9.43821144104004,-0.2868222594261169,-0.5303681492805481,0.1097234413027763,0.0681858286261558,jumping
1761304436894679800,-0.9950121641159058,-9.197092056274414,-0.4321662187576294,-0.51998370885849,0.1359898746013641,0.0852895453572273,jumping
1761304436904816400,-0.8698874711990356,-9.17584991455078,-0.4639865756034851,-0.5334223508834839,0.178138330578804,0.1078908964991569,jumping
1761304436914952700,-1.0175693035125732,-9.28062915802002,-0.5860460996627808,-0.5792359113693237,0.2062373012304306,0.1146102175116539,jumping
1761304436925089300,-0.8256858587265015,-9.365327835083008,-0.7445539832115173,-0.6409314870834351,0.2251735776662826,0.1152210608124733,jumping
1761304436935225600,-0.892457902431488,-9.465547561645508,-0.8356025218963623,-0.7142331600189209,0.2624352574348449,0.1231620758771896,jumping
1761304436945362200,-0.8094834089279175,-9.509206771850586,-0.2701033353805542,-0.8150229454040527,0.304583728313446,0.1378224194049835,jumping
1761304436955498500,-0.8599487543106079,-8.887516021728516,-0.1862418055534362,-0.9536852836608888,0.2453315258026123,0.1304922401905059,jumping
1761304436965634800,-1.1215699911117554,-6.8362956047058105,-0.621637225151062,-1.0825740098953247,0.1414874941110611,0.1109451353549957,jumping
1761304436975771400,-1.3729629516601562,-4.989378929138184,0.0220882892608642,-1.181531310081482,0.0724617540836334,0.1579803675413131,jumping
1761304436985908000,-1.6114928722381592,-3.450833797454834,0.6888891458511353,-1.2517787218093872,0.0546708293259143,0.2331145852804184,jumping
1761304436996044300,-0.5967884063720703,-1.235398292541504,0.6164976358413696,-1.2120736837387085,0.1848576515913009,0.2844257652759552,jumping
1761304437006180600,0.6719527840614319,1.6655569076538086,1.7644734382629397,-1.0984560251235962,0.2416664510965347,0.3284067511558532,jumping
1761304437016317200,1.0530190467834473,4.370119094848633,2.555676221847534,-0.9384140968322754,0.283204048871994,0.3198548853397369,jumping
1761304437026453500,0.8270756006240845,6.925273895263672,2.6467394828796387,-0.8498412370681763,0.2184542566537857,0.3332935273647308,jumping
1761304437036590000,0.4572888612747192,8.908211708068848,1.6440376043319702,-0.8394568562507629,0.1115559786558151,0.3821613192558288,jumping
1761304437046726400,0.4829409122467041,10.193702697753906,1.127485275268555,-0.8021951913833618,0.1091125905513763,0.4291965663433075,jumping
1761304437056863000,0.9332156181335448,10.519747734069824,1.9024797677993772,-0.695907711982727,0.225784420967102,0.4548521339893341,jumping
1761304437066999300,2.046220302581787,10.798576354980469,2.201251745223999,-0.6091674566268921,0.385215550661087,0.4572955369949341,jumping
1761304437077136000,2.900543689727783,10.988298416137695,1.6825073957443235,-0.4955498278141022,0.4658474028110504,0.3980433344841003,jumping
1761304437087272200,2.7918312549591064,10.930215835571287,1.6522657871246338,-0.3177932798862457,0.4218663871288299,0.3485647141933441,jumping
1761304437097408500,1.970930576324463,10.50242805480957,1.8234422206878664,-0.1229330077767372,0.2624352574348449,0.2752630412578583,jumping
1761304437107545000,1.300620436668396,10.168167114257812,1.6710684299468994,-0.0068720318377017,0.0497840531170368,0.2001288384199142,jumping
1761304437117681700,0.9696975946426392,9.718313217163086,1.1503586769104004,0.0334438867866992,-0.1133121699094772,0.1030041202902793,jumping
1761304437127818000,1.154103398323059,9.14407730102539,0.7790484428405762,0.0474933758378028,-0.1792836636304855,-0.0008399150101467,jumping
1761304437137954300,1.189258337020874,8.657952308654785,0.5624895095825195,0.080479122698307,-0.1902789175510406,-0.0973537787795066,jumping
1761304437148091000,1.0445894002914429,8.303281784057617,0.7153654098510742,0.1183516532182693,-0.1902789175510406,-0.1401130855083465,jumping
1761304437158227200,0.5311059951782227,7.848143577575684,0.9285306930541992,0.1757712960243225,-0.2195995897054672,-0.1535517275333404,jumping
1761304437168363800,0.1125159263610839,7.6698713302612305,1.2410283088684082,0.2423536479473114,-0.2586938142776489,-0.1639361381530761,jumping
1761304437178500000,0.0881060361862182,7.551355361938477,1.656374454498291,0.2820587158203125,-0.2348707765340805,-0.1480541080236435,jumping
1761304437188636700,0.2567880153656006,7.642838478088379,1.7776119709014893,0.3180987238883972,-0.2043284028768539,-0.1370588541030883,jumping
1761304437198773000,0.4565850496292114,8.11370849609375,1.6646440029144287,0.3242071866989136,-0.1591257154941558,-0.1327829211950302,jumping
1761304437208909600,0.5780224800109863,8.360877990722656,1.0145070552825928,0.3498627543449402,-0.115144707262516,-0.1333937644958496,jumping
1761304437219046000,0.6870957612991333,8.690167427062988,1.1398128271102903,0.4042281806468963,-0.0803264155983924,-0.1248419061303138,jumping
1761304437229182200,0.861858606338501,9.113945960998535,1.343411564826965,0.4311054646968841,-0.0436755791306495,-0.1083490327000618,jumping
1761304437239318800,0.8167152404785156,9.3928861618042,1.3524495363235474,0.4494308829307556,-0.0308477859944105,-0.1321720778942108,jumping
1761304437249455400,0.8229479789733887,9.665679931640623,1.485631823539734,0.4701996743679046,-0.0485623553395271,-0.1706554591655731,jumping
1761304437259591700,0.593822717666626,9.723295211791992,1.26441490650177,0.4335488379001617,-0.0723854005336761,-0.2085279822349548,jumping
1761304437269728000,0.6216472387313843,9.69754123687744,0.9888107776641846,0.4060607254505157,-0.0748287886381149,-0.2409028857946396,jumping
1761304437279864600,0.6111401319503784,9.676386833190918,0.999847650527954,0.4219427406787872,-0.0797155648469924,-0.2641150951385498,jumping
1761304437290001000,0.5145593881607056,9.795778274536133,1.1801620721817017,0.4640912115573883,-0.1023169159889221,-0.264725923538208,jumping
1761304437300137500,0.4331707954406738,10.146265029907228,1.3408275842666626,0.5086830258369446,-0.1145338639616966,-0.2470113635063171,jumping
1761304437310273800,0.698418378829956,10.645687103271484,1.513558268547058,0.5868715047836304,-0.0937650576233863,-0.2207449227571487,jumping
1761304437320410400,0.9042810201644896,11.114320755004885,1.6879199743270874,0.7017107605934143,-0.0876565799117088,-0.1810398548841476,jumping
1761304437330546700,1.1842634677886963,11.700105667114258,1.642493486404419,0.867250382900238,-0.0962084457278251,-0.1162900477647781,jumping
1761304437340683300,1.3636393547058103,11.91169261932373,1.6233850717544556,1.0279031991958618,-0.0962084457278251,-0.0246629584580659,jumping
1761304437350819600,1.584341526031494,11.712636947631836,1.5635038614273071,1.1623660326004028,-0.091321662068367,0.0590231157839298,jumping
1761304437360956200,1.9195728302001955,11.387951850891112,1.253462553024292,1.320575475692749,-0.1243074163794517,0.0981173440814018,jumping
1761304437371092500,2.167154312133789,10.439817428588867,1.1279948949813845,1.449464201927185,-0.1579040139913559,0.1274380087852478,jumping
1761304437381228800,1.9349926710128784,8.935062408447266,0.7375616431236267,1.5050512552261353,-0.2018850147724151,0.118275299668312,jumping
1761304437391365400,1.7752140760421753,7.426582336425781,0.5921024680137634,1.5019971132278442,-0.2128802686929702,0.049860406666994,jumping
1761304437401501700,1.6304198503494265,5.250495910644531,0.3897516429424286,1.3828818798065186,-0.2079934924840927,-0.0643680319190025,jumping
1761304437411638300,1.6442323923110962,5.230174064636231,0.518379807472229,1.2271157503128052,-0.2159345000982284,-0.182872399687767,jumping
1761304437421774600,0.876230001449585,-1.302536964416504,-0.2428085207939148,1.0272923707962036,-0.2263189107179641,-0.2848838865756988,jumping
1761304437431911200,0.3878262042999267,-5.286346435546875,-0.3944343328475952,0.7792884111404419,-0.2782409191131592,-0.3801760673522949,jumping
1761304437442047500,-0.3569760918617248,-9.087645530700684,-0.4861116409301758,0.5410579442977905,-0.3588727712631225,-0.4718031585216522,jumping
1761304437452184000,-1.1355491876602173,-12.54940414428711,-0.2380621135234832,0.3865135908126831,-0.3619270026683807,-0.5402180552482605,jumping
1761304437462320400,-1.581836462020874,-15.54070281982422,0.3200376331806183,0.3058817684650421,-0.305118203163147,-0.547548234462738,jumping
1761304437472457000,-1.869992733001709,-17.400802612304688,0.4855200052261352,0.2460187375545501,-0.2782409191131592,-0.473024845123291,jumping
1761304437482593300,-2.4589879512786865,-17.81484603881836,0.4066422879695892,0.1507265567779541,-0.2867927849292755,-0.3270323574542999,jumping
1761304437492729900,-2.465954065322876,-16.548526763916016,0.224604845046997,-0.000152711814735,-0.3490992188453674,-0.212803915143013,jumping
1761304437502866200,-2.0918657779693604,-14.289833068847656,-0.181354284286499,-0.1913478970527649,-0.4016320705413818,-0.1566059589385986,jumping
1761304437513002500,-1.626309156417847,-12.268799781799316,-0.6131784915924072,-0.3660502135753631,-0.4370612204074859,-0.1278961449861526,jumping
1761304437523139000,-1.4180433750152588,-10.792600631713867,-0.7667918801307678,-0.4821111857891083,-0.4120164811611175,-0.1010188683867454,jumping
1761304437533275400,-1.0239988565444946,-9.575523376464844,-0.3741661310195923,-0.5798467397689819,-0.3124483823776245,-0.0808609053492546,jumping
1761304437543412000,-1.015475511550903,-9.550274848937988,-0.4400646984577179,-0.6794148683547974,-0.1658450365066528,-0.0582595579326152,jumping
1761304437553548300,-0.0278232097625732,-8.065570831298828,0.1532112210988998,-0.7154548764228821,0.0155766047537326,-0.0356582105159759,jumping
1761304437563684900,-0.1980921030044555,-8.384349822998047,0.8703715205192566,-0.7233958840370178,0.0785702317953109,0.009544488042593,jumping
1761304437573821200,-0.931433916091919,-9.370210647583008,0.3592191636562347,-0.7166765332221985,0.071850910782814,0.0339783802628517,jumping
1761304437583957800,-1.0865662097930908,-10.00234603881836,0.0078541636466979,-0.6384881138801575,0.0650552362203598,0.0260373651981353,jumping
1761304437594094000,-1.055566668510437,-10.642274856567385,0.1229228079319,-0.5719057321548462,0.0284043978899717,0.0303132943809032,jumping
1761304437604230400,-1.3990952968597412,-10.953445434570312,-0.2361994981765747,-0.5132644176483154,0.0149657577276229,0.0254265163093805,jumping
1761304437614367000,-1.3928693532943726,-10.75754737854004,-0.4770289957523346,-0.488219678401947,-0.0003054236294701,0.022372281178832,jumping
1761304437624503300,-1.2127972841262815,-10.382977485656738,-0.6436904668807983,-0.4698942601680755,0.0051922015845775,0.0272590592503547,jumping
1761304437634640000,-1.2744228839874268,-9.913649559020996,-0.7220053672790527,-0.4497362971305847,0.0265718549489974,0.0535254925489425,jumping
1761304437644776200,-1.096032977104187,-9.409585952758787,-0.78179931640625,-0.4320217370986938,0.0601684562861919,0.0694075226783752,jumping
1761304437654912800,-0.8661290407180786,-9.021448135375977,-0.7315177321434021,-0.4057552814483642,0.0871220901608467,0.0773485377430915,jumping
1761304437665049000,-0.8062401413917542,-8.8563871383667,-0.6513315439224243,-0.3910949528217315,0.1060583516955375,0.0779593810439109,jumping
1761304437675185700,-0.7316078543663025,-8.820777893066406,-0.6412317156791687,-0.3721587061882019,0.1280488520860672,0.0742942988872528,jumping
1761304437685322000,-0.6265438795089722,-8.993171691894531,-0.591886043548584,-0.3367295563220978,0.1347681730985641,0.0797919258475303,jumping
1761304437695458300,-0.6152119636535645,-9.246142387390137,-0.7276015877723694,-0.3245126008987427,0.124994620680809,0.1078908964991569,jumping
1761304437705595000,-0.5737047791481018,-9.374048233032228,-0.9265533685684204,-0.3177932798862457,0.1023932695388794,0.1402658075094223,jumping
1761304437715731200,-0.4156230390071869,-9.572832107543944,-1.193495273590088,-0.3348970115184784,0.1109451353549957,0.1701973229646682,jumping
1761304437725867800,-0.3128959238529205,-9.858859062194824,-1.4966034889221191,-0.3703261613845825,0.124383769929409,0.1976854503154754,jumping
1761304437736004000,0.059295117855072,-10.02418327331543,-1.7083003520965576,-0.3941491842269897,0.1616454571485519,0.2288386523723602,jumping
1761304437746140700,0.3622482419013977,-10.118650436401367,-1.7443952560424805,-0.4833329021930694,0.2147891670465469,0.2508291602134704,jumping
1761304437756277000,0.0549923777580261,-10.054038047790527,-1.2541253566741943,-0.571294903755188,0.2673220336437225,0.2636569440364837,jumping
1761304437766413600,-0.2251518368721008,-9.631022453308104,-0.4763062596321106,-0.5780141949653625,0.2306711971759796,0.2612135708332062,jumping
1761304437776550000,-1.4643986225128174,-8.636069297790527,0.5752848386764526,-0.5291464328765869,0.1048366576433181,0.2715979516506195,jumping
1761304437786686500,-3.043226718902588,-6.046133518218994,2.331679344177246,-0.6885775923728943,0.0027488125488162,0.2728196680545807,jumping
1761304437796822800,-2.8575263023376465,-3.2405028343200684,1.4904680252075195,-0.8498412370681763,-0.0778830274939537,0.2569376230239868,jumping
1761304437806959000,-1.4877201318740845,0.1737928390502929,1.2495096921920776,-0.7661551833152771,-0.1108687743544578,0.2514399886131286,jumping
1761304437817095700,0.1109598875045776,3.356616973876953,2.864387989044189,-0.5328115224838257,-0.0522274412214756,0.201350525021553,jumping
1761304437827232000,2.2142539024353027,6.711118698120117,3.970725774765015,-0.4246915578842163,0.0565033704042434,0.1414874941110611,jumping
1761304437837368600,3.8611130714416495,9.433760643005373,2.975894927978516,-0.3990359604358673,0.2111240774393081,0.1390441060066223,jumping
1761304437847505000,3.9227354526519775,10.333965301513672,2.682234048843384,-0.3006895780563354,0.2606027126312256,0.201350525021553,jumping
1761304437857641500,2.718799114227295,10.137418746948242,2.6810107231140137,-0.20356485247612,0.1689756214618683,0.259991854429245,jumping
1761304437867777800,1.793803095817566,9.427867889404297,1.535383701324463,-0.150421142578125,0.0070247435942292,0.3204657435417175,jumping
1761304437877914400,1.7001110315322876,8.055888175964355,0.3338366746902466,-0.0978882759809494,-0.0638335421681404,0.355284035205841,jumping
1761304437888050700,1.9918336868286133,6.973877906799316,-0.3870018720626831,-0.036192700266838,-0.1872246861457824,0.2239518761634826,jumping
1761304437898187300,1.7932472229003906,6.914562225341797,-0.6593014001846313,0.0273354146629571,-0.2965663373470306,0.1286597102880478,jumping
1761304437908323600,-0.3419293165206909,6.287708282470703,-0.1485147476196289,0.0994153916835784,-0.4443913698196411,0.0816244632005691,jumping
1761304437918460200,-1.346866488456726,6.74422550201416,0.4310284852981567,0.0688730254769325,-0.540905237197876,0.0394760034978389,jumping
1761304437928596500,-0.6234995722770691,8.599051475524902,0.7319331169128418,0.0132859274744987,-0.5616740584373474,-0.030771430581808,jumping
1761304437938733000,0.7303051948547363,10.329672813415527,1.454047679901123,-0.0563506595790386,-0.4566083252429962,-0.1327829211950302,jumping
1761304437948869400,1.8857598304748533,11.447609901428224,2.319710493087769,-0.149199441075325,-0.374754786491394,-0.2036412060260772,jumping
1761304437959006000,2.480482578277588,11.415185928344728,2.6029062271118164,-0.2170034945011139,-0.324054479598999,-0.2054737508296966,jumping
1761304437969142300,2.824079990386963,10.48184585571289,2.9550657272338867,-0.1546970754861831,-0.2690782248973846,-0.182872399687767,jumping
1761304437979278800,3.0667171478271484,8.997632026672363,2.949373245239258,-0.027640838176012,-0.160958245396614,-0.1413347870111465,jumping
1761304437989415200,2.4765727519989014,7.702137947082519,2.310636281967163,0.1036913245916366,-0.0894891247153282,-0.0674222633242607,jumping
1761304437999551500,0.9760861396789552,6.7220964431762695,1.5234804153442385,0.233801782131195,-0.0754396393895149,0.0547471866011619,jumping
1761304438009688000,-0.5469529032707214,6.299862861633301,0.9120789766311646,0.3968980014324188,-0.1065928488969802,0.1738623976707458,jumping
1761304438019824400,-1.3309354782104492,6.730144500732422,0.2185325622558593,0.5380037426948547,-0.1462979167699813,0.2447206825017929,jumping
1761304438029961000,-1.1619274616241455,7.879526138305664,-0.455263078212738,0.6497887969017029,-0.1359135210514068,0.2654894888401031,jumping
1761304438040097300,-0.5632230043411255,9.387149810791016,-0.4681808948516845,0.7737907767295837,-0.1175880953669548,0.2166217118501663,jumping
1761304438050233900,0.4358021020889282,10.9077787399292,0.2070114612579345,0.8831323981285095,-0.0357345640659332,0.0993390381336212,jumping
1761304438060370200,1.3691455125808716,11.821491241455078,0.8164036273956299,0.9216157793998718,0.0669641271233558,-0.0228304155170917,jumping
1761304438070506800,2.071678638458252,12.158893585205078,0.6985569000244141,0.927724301815033,0.1219403818249702,-0.1462215632200241,jumping
1761304438080643000,2.4177470207214355,12.071871757507324,0.70393967628479,0.9588775038719176,0.1201078444719314,-0.2549523711204529,jumping
1761304438090779600,2.217581272125244,11.54730987548828,0.8280855417251587,1.0162971019744873,0.0901763290166854,-0.3453577756881714,jumping
1761304438100916000,2.1588659286499023,11.301637649536133,0.8875430822372437,1.0120211839675903,0.0859003961086273,-0.3936147093772888,jumping
1761304438111052500,2.1492133140563965,11.616774559020996,0.3214240074157715,0.9637642502784728,0.0981173440814018,-0.4033882617950439,jumping
1761304438121188900,1.761533260345459,12.082771301269531,0.2767901420593261,1.0016367435455322,0.0981173440814018,-0.3716242015361786,jumping
1761304438131325200,1.0461772680282593,11.95971393585205,0.7843177914619446,1.019962191581726,0.0546708293259143,-0.287938117980957,jumping
1761304438141461800,0.4583840370178222,11.602389335632324,0.4895666539669037,1.0553913116455078,0.0736834481358528,-0.2079171389341354,jumping
1761304438151598000,0.4205039739608764,10.982610702514648,1.296669363975525,1.1501489877700806,0.0975064933300018,-0.128506988286972,jumping
1761304438161734700,0.7189080715179443,9.842792510986328,1.2672269344329834,1.139764666557312,0.1347681730985641,-0.123009368777275,jumping
1761304438171871000,1.1561472415924072,9.04089069366455,0.7116540670394897,1.083566665649414,0.1530935913324356,-0.1810398548841476,jumping
1761304438182007600,1.3168941736221311,7.864455223083496,0.4713393449783325,1.0413419008255005,0.1286597102880478,-0.2213557809591293,jumping
1761304438192144000,1.3341363668441772,7.843288421630859,0.5669949650764465,0.9539906978607178,0.1097234413027763,-0.2005869746208191,jumping
1761304438202280400,1.0891225337982178,5.6880292892456055,0.0593621283769607,0.9179506897926332,0.1237729266285896,-0.206084594130516,jumping
1761304438212416800,1.7122753858566284,4.730213165283203,0.4944961071014404,0.92711341381073,0.1763057857751846,-0.2610608339309692,jumping
1761304438222553300,2.3511204719543457,2.537680625915528,0.2266594618558883,0.8666395545005798,0.2648786306381225,-0.3398601412773132,jumping
1761304438232689700,2.042090892791748,-0.6268758773803711,-0.2707313299179077,0.746913492679596,0.338791161775589,-0.4546994268894195,jumping
1761304438242826200,1.080034613609314,-4.503351211547852,-0.8987546563148499,0.5777087807655334,0.3308501541614532,-0.5542675256729126,jumping
1761304438252962600,-0.6606993079185486,-8.392690658569336,-1.4372713565826416,0.402395635843277,0.2343362867832183,-0.6422295570373535,jumping
1761304438263099000,-2.5290780067443848,-11.489072799682615,-1.112496852874756,0.2783936262130737,0.1592020690441131,-0.6336776614189148,jumping
1761304438273235500,-3.741405487060547,-13.98757553100586,-0.4332934021949768,0.1525591015815735,0.1078908964991569,-0.5573217868804932,jumping
1761304438283372000,-3.7030491828918457,-14.798625946044922,-0.3751450777053833,0.0041232188232243,0.1054475083947181,-0.4760790765285492,jumping
1761304438293508400,-2.7348690032958984,-14.420681953430176,-0.1802747845649719,-0.1052184402942657,0.1213295385241508,-0.394225537776947,jumping
1761304438303644700,-1.8286361694335935,-13.764254570007324,0.0429347157478332,-0.173633337020874,0.1445417255163192,-0.3514662384986877,jumping
1761304438313781200,-1.1930491924285889,-13.066425323486328,0.4566383957862854,-0.2212794125080108,0.154926136136055,-0.320313036441803,jumping
1761304438323917600,-0.6934330463409424,-12.20315933227539,0.5797920823097229,-0.2750339806079864,0.1579803675413131,-0.2909923493862152,jumping
1761304438334054100,-0.4489797949790954,-11.497368812561035,0.3531979322433471,-0.3550549745559692,0.1567586809396743,-0.2598391473293304,jumping
1761304438344190500,0.0873399078845977,-10.63095760345459,0.0428715050220489,-0.435075968503952,0.148206815123558,-0.2231883108615875,jumping
1761304438354327000,0.1012637019157409,-10.60703468322754,-0.0076234638690948,-0.4961606860160827,0.1555369794368744,-0.1474432498216629,jumping
1761304438364463400,0.575637698173523,-9.338615417480469,0.4206306338310241,-0.5572454333305359,0.2044047713279724,-0.0729198902845382,jumping
1761304438374600000,0.5571688413619995,-9.243145942687988,0.7436841130256653,-0.5951179265975952,0.2496074587106704,-0.0283280424773693,jumping
1761304438384736300,0.6136101484298706,-9.44601058959961,0.8430083394050598,-0.6036698222160339,0.276484727859497,-0.0118351653218269,jumping
1761304438394872600,0.2140703797340393,-9.827106475830078,1.0225498676300049,-0.6122216582298279,0.2801498174667358,-0.0130568603053689,jumping
1761304438405009200,-0.2183592468500137,-9.982336044311523,0.6271005272865295,-0.6048914790153503,0.248996615409851,-0.0063375402241945,jumping
1761304438415145700,-0.5529184937477112,-10.129480361938477,0.6929157972335815,-0.566408097743988,0.1995179802179336,0.030924143269658,jumping
1761304438425282000,-0.8103662729263306,-10.204183578491213,0.5682119727134705,-0.5383091568946838,0.1555369794368744,0.0578014217317104,jumping
1761304438435418400,-0.7457295656204224,-10.022756576538086,0.315475195646286,-0.5102101564407349,0.1292705535888672,0.0926197171211242,jumping
1761304438445555000,-0.5554983019828796,-9.855764389038086,0.2182433009147644,-0.4662291705608368,0.1335464864969253,0.126216322183609,jumping
1761304438455691300,-0.3548710644245147,-9.581523895263672,0.2572245001792907,-0.4191939234733581,0.1543152928352356,0.1384332627058029,jumping
1761304438465827800,-0.3144371509552002,-9.252962112426758,0.2460842579603195,-0.3691044449806213,0.1720298528671264,0.1366007179021835,jumping
1761304438475964200,-0.3960832953453064,-9.101882934570312,0.2535622119903564,-0.3257342875003814,0.179360032081604,0.1396549493074417,jumping
1761304438486100700,-0.604456901550293,-9.077674865722656,0.2205487787723541,-0.3000787198543548,0.1873010396957397,0.1445417255163192,jumping
1761304438496237000,-0.6990629434585571,-9.204017639160156,0.1837769448757171,-0.2658712565898895,0.1964637488126754,0.1353790163993835,jumping
1761304438506373600,-0.7672363519668579,-9.313403129577637,0.164036750793457,-0.2151709496974945,0.1848576515913009,0.1366007179021835,jumping
1761304438516510000,-0.806049108505249,-9.580151557922363,0.111149251461029,-0.1632489264011383,0.1897444278001785,0.1567586809396743,jumping
1761304438526646300,-0.6853078007698059,-9.808096885681152,0.0576792955398559,-0.119878776371479,0.2147891670465469,0.1640888452529907,jumping
1761304438536782800,-0.4244327247142792,-9.865903854370115,-0.2234892398118972,-0.1033858954906463,0.2453315258026123,0.1708081662654876,jumping
1761304438546919200,-0.393779993057251,-10.052226066589355,-0.4015813767910003,-0.1302631795406341,0.2685437202453613,0.2007396817207336,jumping
1761304438557055700,-0.4827238321304321,-10.108508110046388,-0.5459471940994263,-0.2316638231277465,0.2728196680545807,0.2282278090715408,jumping
1761304438567192000,-0.4318009614944458,-10.07083511352539,-0.6338540315628052,-0.3434488773345947,0.2996969223022461,0.2441098392009735,jumping
1761304438577328600,-0.552320659160614,-9.340129852294922,0.1463313400745391,-0.4375193417072296,0.2465532273054123,0.2367796748876571,jumping
1761304438587465000,-0.862931489944458,-7.761582374572754,0.1790426969528198,-0.7484406232833862,0.2111240774393081,0.2300603538751602,jumping
1761304438597601500,-0.5257676839828491,-6.4029388427734375,-0.2480697035789489,-0.8877137899398804,0.2422772943973541,0.2111240774393081,jumping
1761304438607737900,0.3516672253608703,-4.703488826751709,0.7808326482772827,-0.8284615874290466,0.3003077805042267,0.2031830698251724,jumping
1761304438617874400,0.7946056723594666,-2.196165084838867,1.5203102827072144,-0.7502731680870056,0.3839938640594482,0.2135674655437469,jumping
1761304438628010800,1.220203876495361,1.1124649047851562,1.447847843170166,-0.7044596076011658,0.3925457298755646,0.2380013614892959,jumping
1761304438638147300,1.2495596408843994,4.21788501739502,0.6815491318702698,-0.6751389503479004,0.3033620119094848,0.3210766017436981,jumping
1761304438648283600,2.1145665645599365,6.941113471984863,-0.0917755365371704,-0.6048914790153503,0.126216322183609,0.4078168869018554,jumping
1761304438658420000,2.7686686515808105,9.748147010803224,-0.3705931305885315,-0.4979932308197021,0.0920088663697242,0.4658474028110504,jumping
1761304438668556500,3.5544891357421875,11.843376159667969,0.4636311531066894,-0.4234698712825775,0.118275299668312,0.4725667238235473,jumping
1761304438678693000,3.8567724227905273,13.627907752990724,0.1990913152694702,-0.4503471553325653,0.1457634270191192,0.4157579243183136,jumping
1761304438688829400,3.09123969078064,14.27320671081543,-0.1859083771705627,-0.4711159467697143,0.1005607321858406,0.3039728701114654,jumping
1761304438698965800,1.80873441696167,13.45493984222412,0.2071110010147094,-0.492495596408844,0.0259610079228878,0.2001288384199142,jumping
1761304438709102300,0.4449591636657715,11.871315956115724,1.2327539920806885,-0.4613423943519592,-0.0070247435942292,0.1292705535888672,jumping
1761304438719238700,-0.5989489555358887,9.653642654418944,2.372632503509521,-0.4607315361499786,0.0100789796561002,0.0681858286261558,jumping
1761304438729375200,-0.6583294868469238,7.971765518188477,2.4485085010528564,-0.5450284481048584,-0.0021379655227065,-0.0631463378667831,jumping
1761304438739511600,0.5703625679016113,7.604789733886719,1.881011128425598,-0.6036698222160339,-0.0137440636754035,-0.2225774675607681,jumping
1761304438749648100,1.3612205982208252,6.780111312866211,2.212629795074463,-0.6317687630653381,-0.0290152449160814,-0.3233672678470611,jumping
1761304438759784400,1.532217264175415,5.974804878234863,1.8223003149032595,-0.6598677635192871,-0.0797155648469924,-0.3630723357200622,jumping
1761304438769921000,0.9894335865974426,5.823795318603516,1.4925684928894043,-0.6158867478370667,-0.1420219838619232,-0.3062635362148285,jumping
1761304438780057300,0.0315688848495483,5.374384880065918,1.2923139333724976,-0.5242596864700317,-0.2037175595760345,-0.2085279822349548,jumping
1761304438790194000,0.2425598502159118,6.127226829528809,1.1155073642730713,-0.4369085133075714,-0.2379250079393386,-0.0771958231925964,jumping
1761304438800330200,-0.0771184563636779,6.720264434814453,0.576175332069397,-0.3361186981201172,-0.2299840003252029,0.0724617540836334,jumping
1761304438810466800,-0.2924448847770691,7.181286811828613,0.4251976013183594,-0.1834068894386291,-0.2055501043796539,0.1915769726037979,jumping
1761304438820603100,-0.5217401385307312,7.59827995300293,0.6586767435073853,-0.0111479628831148,-0.1731752008199691,0.2734304964542389,jumping
1761304438830739500,-0.5603365898132324,8.136138916015625,0.9011003971099854,0.1146865710616111,-0.1450762301683426,0.2630461156368255,jumping
1761304438840876000,-0.2416651844978332,8.916884422302246,1.1028443574905396,0.1714953631162643,-0.1194206401705741,0.179360032081604,jumping
1761304438851012400,0.0746383070945739,9.39582633972168,1.5506831407546997,0.1800472289323806,-0.0925433561205864,0.0523037947714328,jumping
1761304438861149000,0.4815105199813843,9.76449203491211,2.000593423843384,0.187377393245697,-0.0968192890286445,-0.1022405624389648,jumping
1761304438871285200,1.1978065967559814,10.269018173217772,2.1468758583068848,0.1922641694545745,-0.1249182671308517,-0.2781645655632019,jumping
1761304438881421800,1.7500157356262207,10.773523330688477,2.0881242752075195,0.1971509456634521,-0.1469087600708007,-0.4039991199970245,jumping
1761304438891558100,2.0501840114593506,11.075027465820312,1.717034935951233,0.2484621256589889,-0.1560714691877365,-0.4534777402877807,jumping
1761304438901694700,1.752724051475525,11.444051742553713,1.5607047080993652,0.3315373361110687,-0.1835595965385437,-0.4333197772502899,jumping
1761304438911831000,1.3714866638183594,11.861544609069824,1.6874102354049685,0.4347705245018005,-0.1982199400663375,-0.3514662384986877,jumping
1761304438921967600,0.8148033022880554,12.117010116577148,2.221935749053955,0.5752654075622559,-0.2000524699687957,-0.2323510199785232,jumping
1761304438932104000,0.4568707942962646,12.282784461975098,2.887250661849976,0.6998782753944397,-0.2098260372877121,-0.1272853016853332,jumping
1761304438942240500,0.1610557436943054,12.602110862731934,3.429448366165161,0.8629744648933411,-0.2635805904865265,-0.0527619309723377,jumping
1761304438952376800,0.2568950057029724,13.070188522338867,4.153510570526123,1.015075445175171,-0.3081724345684051,-0.0014507622690871,jumping
1761304438962513200,1.0582094192504885,13.87822151184082,4.519118785858154,1.1202175617218018,-0.3093941509723663,-0.0106134712696075,jumping
1761304438972649700,2.685520887374878,14.4757080078125,4.175079822540283,1.2436087131500244,-0.2312056869268417,-0.0857476815581321,jumping
1761304438982786300,3.8676724433898926,14.59225082397461,4.017880916595459,1.4964994192123413,-0.168899267911911,-0.1999761164188385,jumping
1761304438992922600,3.697770833969116,13.824725151062012,4.053510665893555,1.7383949756622314,-0.1236965730786323,-0.2641150951385498,jumping
1761304439003059000,3.7191667556762695,13.775029182434082,4.238794803619385,1.888052463531494,-0.0839914977550506,-0.3025984466075897,jumping
1761304439013195500,1.7983651161193848,10.246419906616213,2.22953462600708,1.9796795845031736,-0.0497840531170368,-0.3612397909164428,jumping
1761304439023332000,1.1984046697616575,7.594734191894531,0.6441161632537842,1.9411962032318115,0.0339020229876041,-0.4504235088825226,jumping
1761304439033468400,0.4639866948127746,3.8357324600219727,-1.15266215801239,1.777489185333252,0.1207186877727508,-0.5194492340087891,jumping
1761304439043604700,-0.438008576631546,-0.6417245864868164,-2.62550687789917,1.583850622177124,0.0785702317953109,-0.5903075337409973,jumping
1761304439053741300,-1.723844051361084,-5.416377067565918,-2.992476224899292,1.338900804519653,-0.0247393138706684,-0.6422295570373535,jumping
1761304439063877600,-2.4244158267974854,-10.10578441619873,-2.68008804321289,1.1550358533859253,-0.1346918195486068,-0.6324560046195984,jumping
1761304439074014200,-3.0408360958099365,-14.522153854370115,-1.4784748554229736,0.9655967950820924,-0.1982199400663375,-0.5951942801475525,jumping
1761304439084150500,-2.826068639755249,-17.212373733520508,-0.5626820921897888,0.7750124335289001,-0.2415900975465774,-0.5102865099906921,jumping
1761304439094287000,-2.199765205383301,-18.766468048095703,0.0129631161689758,0.5825955867767334,-0.2819060087203979,-0.4052208065986633,jumping
1761304439104423400,-0.9814050197601318,-18.30725860595703,0.1870941519737243,0.3174878656864166,-0.3313846290111542,-0.3691807985305786,jumping
1761304439114560000,0.6511273384094238,-15.845647811889648,-0.5243306756019592,-0.0459662564098835,-0.3796415627002716,-0.3600181043148041,jumping
1761304439124696300,1.4855235815048218,-13.442543983459473,-1.2368006706237793,-0.3782671689987182,-0.4376720488071441,-0.3227564096450805,jumping
1761304439134833000,2.072793483734131,-11.247553825378418,-0.5515368580818176,-0.6476507782936096,-0.4340069890022278,-0.3117611706256866,jumping
1761304439144969200,2.659503221511841,-9.11388874053955,0.5362285375595093,-0.9005415439605713,-0.3319954872131347,-0.3306974470615387,jumping
1761304439155105800,3.138479709625244,-7.969388008117676,1.3247461318969729,-1.093569278717041,-0.1707318127155304,-0.4015557169914245,jumping
1761304439165242000,3.160594701766968,-8.300055503845215,2.000388860702514,-1.1760337352752686,-0.0393996499478817,-0.4846309423446655,jumping
1761304439175378700,2.439992904663086,-9.56431484222412,2.130683660507202,-1.1699252128601074,0.021074229851365,-0.5353312492370605,jumping
1761304439185515000,0.7537521123886108,-11.06013011932373,1.5042407512664795,-1.094791054725647,-0.0174091476947069,-0.4858526289463043,jumping
1761304439195651300,-1.1550426483154297,-12.503228187561035,0.9352368712425232,-0.9677347540855408,-0.1224748790264129,-0.3453577756881714,jumping
1761304439205788000,-2.4246926307678223,-13.25912857055664,0.4456540644168854,-0.8095253109931946,-0.2299840003252029,-0.1724879890680313,jumping
1761304439215924200,-2.6956727504730225,-12.912139892578123,0.0718142390251159,-0.6678087711334229,-0.3087832927703857,0.0193180441856384,jumping
1761304439226060800,-2.377304553985596,-12.01934814453125,-0.21039579808712,-0.5260922312736511,-0.324054479598999,0.1976854503154754,jumping
1761304439236197000,-1.833398699760437,-10.847245216369627,-0.1860362738370895,-0.3825430870056152,-0.268467366695404,0.3003077805042267,jumping
1761304439246333700,-1.0313441753387451,-9.434720993041992,0.0636132657527923,-0.2554868757724762,-0.1957765519618988,0.3589491248130798,jumping
1761304439256470000,-1.0643824338912964,-9.410971641540527,0.0479895174503326,-0.1559187620878219,-0.1328592747449875,0.357727438211441,jumping
1761304439266606600,-0.2904692590236664,-7.481716156005859,0.0631661117076873,-0.0624591335654258,-0.1096470803022384,0.3137464225292206,jumping
1761304439276743000,-0.2498976588249206,-7.264941692352295,0.0193217098712921,0.0175618585199117,-0.1078145429491996,0.2722088098526001,jumping
1761304439286879500,-0.4087361395359039,-7.488332271575928,0.0725117027759552,0.104913018643856,-0.1322484314441681,0.2343362867832183,jumping
1761304439297015800,-0.3100212216377258,-7.914294242858887,0.0291494131088256,0.1690519750118255,-0.1450762301683426,0.1934095174074173,jumping
1761304439307152100,-0.0338191203773021,-8.355934143066406,-0.2936458885669708,0.1922641694545745,-0.160958245396614,0.1341573297977447,jumping
1761304439327425000,0.4764339327812195,-9.09038257598877,-0.7406564950942993,0.127514362335205,-0.1499630063772201,0.0199288912117481,jumping
1761304439337561600,0.7200064063072205,-9.50729274749756,-0.6656457781791687,0.0890309885144233,-0.1346918195486068,-0.0155002493411302,jumping
1761304439347698000,0.6881564855575562,-9.946857452392578,-0.5121089220046997,0.013896775431931,-0.1640124917030334,-0.0142785543575882,jumping
1761304439357834500,0.4736200869083404,-10.158295631408691,-1.3968491554260254,-0.050853032618761,-0.1768402755260467,-0.0014507622690871,jumping
1761304439367970800,0.4141355752944946,-10.40723705291748,-0.8594991564750671,-0.1119377613067627,-0.2122694253921508,0.0547471866011619,jumping
1761304439378107400,0.1648123264312744,-10.6027193069458,-1.0488498210906982,-0.2060082405805587,-0.2617480456829071,0.1170536056160926,jumping
1761304439388243700,0.3454097509384155,-10.563258171081545,-1.1058483123779297,-0.326345145702362,-0.2440334856510162,0.148206815123558,jumping
1761304439398380300,0.6485784649848938,-10.401330947875977,-1.131060242652893,-0.5218162536621094,-0.2086043357849121,0.1610346138477325,jumping
1761304439408516600,0.9515500068664552,-10.135912895202637,-1.233451008796692,-0.7582141757011414,-0.1469087600708007,0.1567586809396743,jumping
1761304439418653200,0.9738599061965942,-9.826398849487305,-1.10148286819458,-1.0117157697677612,-0.0827698037028312,0.1390441060066223,jumping
1761304439428789500,0.6530225276947021,-9.537202835083008,-0.6148137450218201,-1.1742011308670044,0.0058030490763485,0.1353790163993835,jumping
1761304439438926000,-0.2470065951347351,-8.107627868652344,1.0045123100280762,-1.261552333831787,-0.1108687743544578,0.149428516626358,jumping
1761304439449062400,-1.518964409828186,-4.7990803718566895,1.2879645824432373,-1.4399197101593018,-0.2947337925434112,0.1500393599271774,jumping
1761304439459198700,-1.7913254499435425,-0.6725358963012695,0.3564907312393188,-1.4832898378372192,-0.40712970495224,0.1030041202902793,jumping
1761304439469335300,-0.7973677515983582,3.767486572265625,0.5530641078948975,-1.6305804252624512,-0.4132381677627563,0.0968956500291824,jumping
1761304439479471600,-0.0139880031347274,8.655169486999512,0.3004229068756103,-1.8058935403823853,-0.2293731421232223,0.1695864647626876,jumping
1761304439489608200,1.9407697916030884,13.203742027282717,2.665681838989258,-1.7771837711334229,-0.0198525357991457,0.1634780019521713,jumping
1761304439499744500,3.7889206409454346,16.541213989257812,5.219095706939697,-1.6855566501617432,0.2361688166856765,0.1194969937205314,jumping
1761304439509881000,2.9170947074890137,17.199771881103516,6.512824058532715,-1.6238610744476318,0.3369586169719696,0.0920088663697242,jumping
1761304439520017400,0.65235435962677,16.794034957885742,5.570148944854736,-1.6006488800048828,0.2667111754417419,0.1390441060066223,jumping
1761304439530154000,-0.4507722556591034,15.019110679626465,4.3040971755981445,-1.5107779502868652,0.126216322183609,0.0852895453572273,jumping
1761304439540290300,-0.6075167655944824,12.375396728515623,3.3022725582122803,-1.3513468503952026,0.0314586348831653,0.0101553360000252,jumping
1761304439550427000,-1.0018672943115234,10.086852073669434,2.9207987785339355,-1.1803096532821655,0.0119115216657519,-0.0539836250245571,jumping
1761304439560563200,-1.5111888647079468,8.99967098236084,2.175563097000122,-1.0966235399246216,0.023517619818449,-0.0875802263617515,jumping
1761304439570699800,-2.167689085006714,8.985625267028809,1.7229714393615725,-0.9762866497039796,-0.0045813545584678,-0.0399341396987438,jumping
1761304439580836000,-2.0098989009857178,10.072538375854492,1.702542066574097,-0.7612683773040771,-0.0668877735733985,0.0113770300522446,jumping
1761304439590972700,-2.181851387023926,11.278398513793944,1.4917466640472412,-0.5523586273193359,-0.1566823273897171,0.1353790163993835,jumping
1761304439601109000,-2.0147900581359863,11.975031852722168,1.3681282997131348,-0.4430169761180877,-0.1664558798074722,0.2899233698844909,jumping
1761304439611245600,-1.227164387702942,11.601058959960938,1.416353702545166,-0.3691044449806213,-0.1133121699094772,0.4310291111469269,jumping
1761304439621382000,-0.8155797719955444,10.373594284057615,1.917205810546875,-0.2780882120132446,-0.1145338639616966,0.5470900535583496,jumping
1761304439631518200,-1.0078564882278442,8.749692916870117,2.444664239883423,-0.2383831441402435,-0.1664558798074722,0.5660263299942017,jumping
1761304439641654800,0.3625807762145996,7.995235443115234,2.0326449871063232,-0.2890834510326385,-0.2373141646385193,0.3613924980163574,jumping
1761304439651791000,1.4212942123413086,6.624018669128418,1.8321681022644043,-0.3135173618793487,-0.2843494117259979,0.1457634270191192,jumping
1761304439661927700,1.182736039161682,4.966928482055664,1.8382587432861328,-0.335507869720459,-0.353985995054245,-0.0765849724411964,jumping
1761304439672064000,1.0161908864974976,4.01865291595459,1.1587584018707275,-0.3672719001770019,-0.4413371384143829,-0.2549523711204529,jumping
1761304439682200600,0.5819455981254578,3.541548728942871,0.4327168464660644,-0.4014793634414673,-0.5268557667732239,-0.3532987833023071,jumping
1761304439692337000,0.0258240103721618,3.1874141693115234,0.1489429473876953,-0.4668400287628174,-0.5525113344192505,-0.3264214992523193,jumping
1761304439702473500,-0.3318279087543487,2.414148330688477,-0.2090625762939453,-0.6055023670196533,-0.6093201637268066,-0.2354052662849426,jumping
1761304439712609800,-0.0578149259090423,1.900106430053711,-0.7932307720184326,-0.7679877281188965,-0.7504258751869202,-0.0381015986204147,jumping
1761304439722746400,-1.4222805500030518,1.2671384811401367,-0.5546932220458984,-0.6843016147613525,-0.4859289824962616,0.2471640706062317,jumping
1761304439732882700,-1.913117527961731,1.7476158142089844,1.3433113098144531,-0.5273138880729675,-0.4034646153450012,0.4927246570587158,jumping
1761304439743019000,-1.3606820106506348,1.4747552871704102,0.5454385280609131,-0.5279247164726257,-0.3961344361305237,0.7908181548118591,jumping
1761304439753155600,-1.129621982574463,0.0195331573486328,-0.4513163566589355,-0.5395308136940002,-0.1127013191580772,1.1243407726287842,jumping
1761304439763292000,-2.7605624198913574,-0.6692218780517578,-0.1898994445800781,-0.4338542520999908,0.2948101460933685,1.495812177658081,jumping
1761304439783564800,-0.1279007196426391,-1.9403810501098635,-1.1220645904541016,-0.571294903755188,0.1121668294072151,1.682120680809021,jumping
1761304439793701000,5.146568775177002,-2.4638304710388184,-5.094445705413818,-1.1332744359970093,-0.2067717909812927,1.408995509147644,jumping
1761304439803837700,5.153961181640625,-3.7581634521484375,-5.257547855377197,-1.662344455718994,0.0119115216657519,1.0644776821136477,jumping
1761304439813974000,1.905623197555542,-0.7182035446166992,-4.213937282562256,-2.1296427249908447,0.1506502032279968,0.8005917072296143,jumping
1761304439824110600,0.5592827796936035,0.9016647338867188,-5.097291469573975,-2.555403232574463,0.2758738994598388,0.362003356218338,jumping
1761304439834247000,1.0478073358535769,0.9685840606689452,-5.394140720367432,-2.9964349269866943,0.4847836494445801,-0.1431673318147659,jumping
1761304439844383500,1.7837975025177002,-0.6271018981933594,-5.388295650482178,-3.3556129932403564,0.7034669518470764,-0.5670953392982483,jumping
1761304439854519800,1.9350892305374143,-1.7815585136413574,-4.852168083190918,-3.604227781295776,0.8097543716430664,-0.8260945677757263,jumping
1761304439864656400,1.3413430452346802,-2.248194694519043,-4.9196085929870605,-3.817413568496704,0.7926506996154785,-0.8297596573829651,jumping
1761304439874792700,0.1217920780181884,-2.450561046600342,-5.399005889892578,-4.062973976135254,0.789596438407898,-0.6544464826583862,jumping
1761304439884929300,0.3756177425384521,-2.3524179458618164,-5.897881507873535,-4.366030693054199,0.8280798196792603,-0.6330668330192566,jumping
1761304439895065600,1.9055700302124023,-1.528752326965332,-6.49205493927002,-4.669011116027832,0.8922187685966492,-0.8059365749359131,jumping
1761304439905202000,2.0490074157714844,-1.2079920768737793,-6.842581748962402,-4.923123359680176,0.9985061883926392,-1.1272422075271606,jumping
1761304439915338500,3.4400367736816406,-0.5413022041320801,-5.747354984283447,-4.993981838226318,0.804256796836853,-1.3820419311523438,jumping
1761304439925474800,3.1802542209625244,-1.5039925575256348,-3.759470462799072,-4.091683864593506,1.44625723361969,-1.5750696659088137,jumping
1761304439935611400,2.903122663497925,-0.1868987083435058,-0.0287327766418457,-4.0299882888793945,0.7205706834793091,-1.6850221157073977,jumping
1761304439945747700,2.2686426639556885,-0.5725860595703125,-4.472738742828369,-4.031820774078369,0.5079958438873291,-1.6599774360656738,jumping
1761304439955884000,1.141346454620361,0.1348409652709961,-3.916138648986816,-4.223627090454102,0.5513660311698914,-1.6721943616867063,jumping
1761304439966020600,1.086872100830078,0.2730317115783691,-4.848764419555664,-4.433224201202393,0.5806866884231567,-1.807802438735962,jumping
1761304439976157000,1.6582584381103516,0.2866792678833008,-3.9294490814208975,-4.422839641571045,0.502498209476471,-2.05702805519104,jumping
1761304439986293500,2.234812021255493,0.4455361366271972,-2.5201196670532227,-4.197971343994141,0.1940203607082367,-2.206074953079224,jumping
1761304439996429800,1.0752933025360107,0.2076051235198974,-1.4900665283203125,-3.931031227111816,-0.1261399537324905,-2.1920254230499268,jumping
1761304440006566400,0.4497647881507873,-0.3510692119598388,-1.4046688079833984,-3.863837957382202,-0.3649812340736389,-2.1162803173065186,jumping
1761304440016702700,0.3127797842025757,-1.1896803379058838,-1.9778966903686523,-3.861394643783569,-0.6496360301971436,-1.9983868598937988,jumping
1761304440026839300,-0.0974394977092742,-2.0437099933624268,-1.1886415481567385,-3.63232684135437,-1.0955545902252195,-1.8566702604293823,jumping
1761304440036975600,-0.500624418258667,-2.197316646575928,0.3719358444213867,-3.191905975341797,-1.4822208881378174,-1.6673076152801514,jumping
1761304440047112200,-0.950486660003662,-2.0931966304779053,1.7129335403442385,-2.75576114654541,-1.8395664691925049,-1.4541219472885132,jumping
1761304440057248500,-0.7352696657180786,-1.8289670944213867,1.5633516311645508,-2.515087127685547,-2.1535420417785645,-1.314848780632019,jumping
1761304440067384800,-0.576911211013794,-0.8132247924804688,1.2879009246826172,-2.5230281352996826,-1.9959434270858765,-1.188937783241272,jumping
1761304440077521400,-2.0184547901153564,-0.098305344581604,2.007258415222168,-2.578615427017212,-1.599503517150879,-1.0288958549499512,jumping
1761304440087657700,-2.7497706413269043,-0.3512147068977356,3.430914878845215,-2.610379457473755,-1.0485193729400637,-0.8505284786224365,jumping
1761304440097794300,-2.288787841796875,-1.1471039056777954,4.064245223999023,-2.728883743286133,-0.3222219347953796,-0.6520031094551086,jumping
1761304440107930600,-2.0657758712768555,-2.1808578968048096,5.025408744812012,-2.8956451416015625,0.1530935913324356,-0.4437041878700256,jumping
1761304440118067200,-1.6224150657653809,-2.9437856674194336,4.762604713439941,-2.9127488136291504,0.1854684948921203,-0.3319191336631775,jumping
1761304440128203500,-0.3951941728591919,-2.7149147987365723,5.385059356689453,-2.5999948978424072,0.6973584890365601,-0.3306974470615387,jumping
1761304440138340000,0.1123512312769889,-2.071115255355835,7.254410743713379,-2.058173418045044,1.3802857398986816,-0.3728458881378174,jumping
1761304440148476400,-0.5574232339859009,-1.4005202054977417,8.159518241882324,-1.4900091886520386,1.4212125539779663,-0.3282540440559387,jumping
1761304440158612700,-1.0206209421157837,-1.0870048999786377,6.050272941589356,-0.932305634021759,0.9111550450325012,-0.3294757306575775,jumping
1761304440168749300,-0.7892846465110779,-0.8373552560806274,4.993512153625488,-0.3141281902790069,0.5373165011405945,-0.417437732219696,jumping
1761304440178885600,-0.512575089931488,-0.3266965746879577,4.693761825561523,0.3553603887557983,0.1170536056160926,-0.7002600431442261,jumping
1761304440189022200,0.4960927367210388,0.403872400522232,3.9416542053222656,0.899625301361084,-0.2226538211107254,-1.0026293992996216,jumping
1761304440199158500,0.0996705442667007,-0.7082237601280212,2.346125602722168,1.0358442068099976,-0.5989357233047485,-1.089369773864746,jumping
1761304440209295000,-0.5721150040626526,-2.489370584487915,0.2209577560424804,0.8171609044075012,-0.6502469182014465,-0.8908443450927734,jumping
1761304440219431400,-0.9550605416297911,-3.2886745929718018,-0.4816665649414062,0.5636593103408813,-0.1927223056554794,-0.5420506000518799,jumping
1761304440229568000,-1.2753477096557615,-2.863502025604248,-0.0571393966674804,0.3229855000972748,0.4041518270969391,-0.1535517275333404,jumping
1761304440239704300,-1.715762495994568,-2.465733766555786,0.3383970260620117,0.1751604527235031,0.7517238855361938,0.1946312040090561,jumping
1761304440249841000,-1.9519692659378047,-1.9773509502410889,0.6904306411743164,0.2081461995840072,0.683309018611908,0.4017084240913391,jumping
1761304440259977200,-1.5830581188201904,-1.3389273881912231,0.6208715438842773,0.3639122545719147,0.3284067511558532,0.4646256864070892,jumping
1761304440270113500,-1.382629156112671,-0.952355146408081,0.4051103591918945,0.525175929069519,-0.0571142174303531,0.4945572018623352,jumping
1761304440280250000,-1.700727939605713,-1.1360514163970947,0.4357271194458008,0.6290199756622314,-0.2904578745365143,0.572745680809021,jumping
1761304440290386400,-1.26478910446167,-1.0768781900405884,-0.3121232986450195,0.6418477296829224,-0.4437805414199829,0.6100073456764221,jumping
1761304440300523000,-0.3152973353862762,-0.9915041923522948,-1.1438941955566406,0.5740436911582947,-0.5274665951728821,0.5165477395057678,jumping
1761304440310659300,0.4417629837989807,-0.68462073802948,-1.9187440872192385,0.4390464723110199,-0.6166502833366394,0.3803287744522095,jumping
1761304440320795600,0.4344699382781982,-0.625274658203125,-2.321485042572021,0.3303156495094299,-0.768140435218811,0.3375694751739502,jumping
1761304440330932200,-0.2123323380947113,-0.827498197555542,-2.140976428985596,0.5612159371376038,-0.9055810570716858,0.3601708114147186,jumping
1761304440341068500,-0.6850782036781311,-1.017147421836853,0.8889713287353516,0.9484930634498596,-0.8041804432868958,0.332071840763092,jumping
1761304440351205000,0.0434542000293731,-0.6929990649223328,1.7087440490722656,1.4097591638565063,-0.3796415627002716,0.3174115121364593,jumping
1761304440361341400,-0.1581490188837051,-0.7556454539299011,2.273508071899414,1.8361304998397827,0.1616454571485519,0.3106921911239624,jumping
1761304440371478000,0.1010250076651573,-0.7241973280906677,2.4249563217163086,2.1183419227600098,0.5684697031974792,0.2783172726631164,jumping
1761304440381614300,0.293049693107605,-0.4245002269744873,1.3274993896484375,2.159879446029663,0.7712710499763489,0.2673220336437225,jumping
1761304440391751000,-1.179103136062622,0.1893872022628784,0.4439649581909179,2.045040369033813,0.7737144231796265,0.3394020199775696,jumping
1761304440401887200,-1.087784767150879,-0.3932238817214966,-0.7567653656005859,1.81413996219635,0.6576534509658813,0.4420243501663208,jumping
1761304440412023800,-1.0532774925231934,-0.8725327849388123,-1.6599178314208984,1.5569733381271362,0.4487436711788177,0.5385382175445557,jumping
1761304440422160100,-0.7897309064865112,-1.123287796974182,-1.8988113403320312,1.4561835527420044,0.4499653577804565,0.6252785325050354,jumping
1761304440432296400,-0.4525699317455292,-1.4584676027297974,-1.1732540130615234,1.4964994192123413,0.7767686247825623,0.7114079594612122,jumping
1761304440442433000,0.0713365972042083,-1.7000060081481934,-0.6997823715209961,1.5496431589126587,1.196420669555664,0.7010235786437988,jumping
1761304440452569300,1.25014328956604,-1.6205813884735107,-1.0860357284545898,1.4751198291778564,1.5965256690979004,0.5745782256126404,jumping
1761304440462706000,1.6676560640335083,-1.7230552434921265,-2.010304450988769,1.286978840827942,1.798105239868164,0.3882697820663452,jumping
1761304440472842200,2.2976040840148926,-1.568654179573059,-2.8079113960266118,1.0462286472320557,1.7693954706192017,0.1103342846035957,jumping
1761304440482978800,2.98514723777771,-1.0109479427337646,-2.6902661323547363,0.816550076007843,2.1169674396514893,-0.0961320847272872,jumping
1761304440493115100,3.049187660217285,-1.7328275442123413,-0.0399484634399414,0.5819846987724304,1.797494411468506,-0.152940884232521,jumping
1761304440503251700,1.4201397895812988,-1.4817792177200315,-1.9339094161987305,0.3785725831985473,1.6093534231185913,-0.0478751547634601,jumping
1761304440513388000,-0.9820555448532104,-1.375766038894653,-0.4884443283081054,0.2612899243831634,2.046109199523926,0.1488176584243774,jumping
1761304440523524400,-2.764499425888061,-1.0852701663970947,-0.4478359222412109,0.0969720035791397,1.844529628753662,0.2978644073009491,jumping
1761304440533661000,-2.931800365447998,-0.3982760906219482,-1.4691462516784668,0.1018587797880172,1.5843087434768677,0.4737884104251861,jumping
1761304440543797200,-2.963355302810669,-0.0404510498046875,-0.5976457595825195,0.1977618038654327,1.2685006856918335,0.6210026144981384,jumping
1761304440553933800,-2.3708412647247314,0.0132553577423095,-0.7155017852783203,0.2099787443876266,1.1377793550491333,0.6533774733543396,jumping
1761304440564070100,-0.9060661792755128,-0.1448442935943603,-1.734729290008545,0.0279462616890668,0.938032329082489,0.5904602408409119,jumping
1761304440574206700,0.2004749774932861,-0.1874897480010986,-2.9832472801208496,-0.3153499066829681,0.7059103846549988,0.4664582312107086,jumping
1761304440584343000,0.7082663774490356,0.3610439300537109,-3.291614055633545,-0.681858241558075,0.5599178671836853,0.3027511835098266,jumping
1761304440594479600,0.7889646291732788,0.9339146614074708,-2.484766960144043,-0.9023740887641908,0.4536304473876953,0.1616454571485519,jumping
1761304440604616000,0.3551681041717529,0.8889408111572266,-1.7526836395263672,-1.038593053817749,0.3192440569400787,0.0975064933300018,jumping
1761304440614752500,0.0723228454589843,0.6252286434173584,-1.6665220260620115,-1.0782980918884275,0.0345128700137138,0.124994620680809,jumping
1761304440624888800,-0.2329599857330322,-0.0408909320831298,-1.498281955718994,-1.0001096725463867,-0.3710896968841553,0.2190650999546051,jumping
1761304440635025200,-0.4490494728088379,-0.507636308670044,-1.5202269554138184,-0.9200887084007264,-0.671015739440918,0.2502183020114898,jumping
1761304440645161700,-0.1155354976654052,0.096437931060791,-1.234395980834961,-0.8394568562507629,-0.7235485911369324,0.153704434633255,jumping
1761304440655298000,0.0998634099960327,1.3408820629119873,0.3282337188720703,-0.7142331600189209,-0.693617045879364,-0.0258846525102853,jumping
1761304440665434600,0.311145544052124,1.9701740741729736,1.3097906112670898,-0.6000047326087952,-0.7113316059112549,-0.1608818918466568,jumping
1761304440675571000,0.2853971719741821,1.1184847354888916,1.0568056106567385,-0.5877877473831177,-0.7583668828010559,-0.1553842723369598,jumping
1761304440685707300,0.2448843717575073,-0.0028638839721679,0.2151470184326172,-0.6415423154830933,-0.5799994468688965,-0.0301605835556983,jumping
1761304440695843800,0.0493468046188354,-0.0717265605926513,0.6175041198730469,-0.6861341595649719,-0.1615691035985946,0.1384332627058029,jumping
1761304440705980400,0.2528570890426636,-0.0132617950439453,0.7275247573852539,-0.7857022881507874,0.0583359114825725,0.2398339062929153,jumping
1761304440716116700,0.8381121754646301,-0.0769283771514892,-0.1818361282348632,-0.8791618943214417,0.0290152449160814,0.2208976447582245,jumping
1761304440726253000,1.4423973560333252,0.4400923252105713,-0.5863208770751953,-0.8089144825935364,-0.1554606258869171,0.1115559786558151,jumping
1761304440736389600,1.5202559232711792,0.7904336452484131,0.1172771453857421,-0.5517477989196777,-0.3759764730930328,-0.0173327904194593,jumping
1761304440746526000,1.1615594625473022,0.8452897071838379,0.8106603622436523,-0.2243336588144302,-0.536629319190979,-0.1150683537125587,jumping
1761304440756662500,0.5021799802780151,0.4109960794448852,1.048723220825195,0.0450499840080738,-0.693617045879364,-0.1205659806728363,jumping
1761304440766798800,-0.1502633094787597,-0.3464034795761108,0.645294189453125,0.1488940119743347,-0.7467607855796814,-0.037490751594305,jumping
1761304440787071700,0.3493819236755371,-0.5935508012771606,-0.2258853912353515,-0.2383831441402435,-0.2971771955490112,0.0913980230689048,jumping
1761304440797208300,0.4123878479003906,-0.2719700336456299,-0.4498767852783203,-0.6922426819801331,0.1671430766582489,0.1335464864969253,jumping
1761304440807344600,0.3512314558029175,-0.0226459503173828,-0.3481016159057617,-1.024543523788452,0.5238778591156006,0.1830251067876815,jumping
1761304440817481000,0.2483510971069336,-0.1616414785385131,0.0948572158813476,-1.074633002281189,0.6411605477333069,0.2373905181884765,jumping
1761304440827617500,-0.0343042612075805,-0.3529551029205322,0.4110260009765625,-0.885881245136261,0.5886276960372925,0.2984752357006073,jumping
1761304440837753900,-0.272182822227478,-0.3092663288116455,0.8457670211791992,-0.6012263894081116,0.5782433152198792,0.3357369303703308,jumping
1761304440847890400,0.0116094350814819,-0.1795035600662231,1.3013648986816406,-0.356276661157608,0.655210018157959,0.3290176093578338,jumping
1761304440858026800,0.324074387550354,-0.002432107925415,1.3029546737670898,-0.2536543309688568,0.7333984971046448,0.3051945567131042,jumping
1761304440868163300,0.4248191118240356,0.2524360418319702,1.0121641159057615,-0.2451024651527404,0.7712710499763489,0.278928130865097,jumping
1761304440878299600,0.7126761674880981,0.2697906494140625,0.3540487289428711,-0.2805316150188446,0.7498913407325745,0.2196759432554245,jumping
1761304440888436200,0.8237655162811279,0.2609724998474121,-0.1607685089111328,-0.2964136302471161,0.6497124433517456,0.1604237556457519,jumping
1761304440898572500,0.6453796625137329,0.2239536046981811,-0.3315105438232422,-0.2451024651527404,0.5434249639511108,0.126216322183609,jumping
1761304440908709000,0.3956676721572876,-0.1290825605392456,-0.4996061325073242,-0.1382041871547699,0.3436779379844665,0.1317139416933059,jumping
1761304440918845400,0.0236027240753173,-0.3773533701896667,-0.7042245864868164,0.1104106456041336,0.1396549493074417,0.1903552711009979,jumping
1761304440928981800,-0.1075339317321777,-0.4342010021209717,-0.1069469451904296,0.3107685446739197,-0.145687073469162,0.1989071369171142,jumping
1761304440939118300,-0.1332061290740966,-0.0951862335205078,-0.5872659683227539,0.3260397315025329,-0.3484883606433868,0.1646996885538101,jumping
1761304440949254700,-0.0445640087127685,0.1174046993255615,-0.8927927017211914,0.2093679010868072,-0.4382829070091247,0.0804027691483497,jumping
1761304440959391200,0.1967290639877319,0.3312890529632568,-0.9933719635009766,0.0920852273702621,-0.430341899394989,-0.046042613685131,jumping
1761304440969527600,0.4095350503921509,0.5274697542190552,-0.594548225402832,0.0181727055460214,-0.2623589038848877,-0.1504974961280822,jumping
1761304440979664100,0.6012909412384033,-0.0766551494598388,-0.120208740234375,0.0413849018514156,-0.0284043978899717,-0.1535517275333404,jumping
1761304440989800400,0.2574886083602905,-0.0674072504043579,0.419255256652832,0.0438282899558544,0.0644443854689598,-0.1914242655038833,jumping
1761304440999937000,0.0717287063598632,0.0124983787536621,-0.1435251235961914,-0.0142021989449858,0.1054475083947181,-0.2231883108615875,jumping
1761304441010073300,-0.2039073705673217,-0.0663886070251464,-0.4992923736572265,-0.0856713280081749,0.1646996885538101,-0.1877591758966446,jumping
1761304441020209700,-0.3554604053497314,-0.081009030342102,-0.7227096557617188,-0.1272089481353759,0.195852905511856,-0.0851368382573127,jumping
1761304441030346200,-0.6142536401748657,0.0067565441131591,-0.6473302841186523,-0.1082726791501045,0.1671430766582489,0.0804027691483497,jumping
1761304441040482600,-0.9638758897781372,-0.0104882717132568,-0.6547164916992188,-0.0404686294496059,0.0534491352736949,0.2178433984518051,jumping
1761304441050619100,-0.6635856628417969,0.0891776084899902,-0.7012567520141602,0.0774248912930488,-0.0711637064814567,0.2581593096256256,jumping
1761304441060755500,0.016635775566101,0.5409080982208252,-0.5556640625,0.2258607745170593,-0.2428117841482162,0.2031830698251724,jumping
1761304441070892000,0.5893967151641846,0.8267614841461182,-0.6780204772949219,0.3486410677433014,-0.4645493328571319,0.0926197171211242,jumping
1761304441081028400,0.8773338794708252,0.8055100440979004,-0.9929513931274414,0.4042281806468963,-0.6221479177474976,-0.022219568490982,jumping
1761304441091165000,0.722124457359314,0.6957850456237793,-1.2943830490112305,0.3816268146038055,-0.7235485911369324,-0.1572168171405792,jumping
1761304441101301200,0.9781405329704284,1.4571460485458374,-1.7216219902038574,0.3046600818634033,-0.8310576677322388,-0.3759001195430755,jumping
1761304441111437800,0.3108158111572265,1.275437831878662,-1.6671538352966309,0.2386885732412338,-0.9208522439002992,-0.5719820857048035,jumping
1761304441121574100,-0.6611107587814331,0.7028485536575317,-1.5194296836853027,0.2356343269348144,-1.106549859046936,-0.6061895489692688,jumping
1761304441131710500,-0.92993426322937,0.0200957059860229,-1.6508159637451172,0.28938889503479,-1.3624948263168335,-0.5609868764877319,jumping
1761304441141847000,-0.4791057109832763,-0.2289142608642578,-1.7189216613769531,0.2741177082061767,-1.5976710319519043,-0.4944044947624206,jumping
1761304441151983400,-0.4743601083755493,-0.3770849704742431,-1.8859877586364744,-0.2622061967849731,-1.1877925395965576,-0.2195232361555099,jumping
1761304441162120000,-1.1194347143173218,-1.1270015239715576,-1.4306268692016602,-0.4833329021930694,-0.9074136018753052,-0.0087809292599558,jumping
1761304441172256300,-0.7531513571739197,-1.2449700832366943,-0.6962175369262695,-0.6134433746337891,-0.7467607855796814,0.094452254474163,jumping
1761304441182392800,-0.3842722177505493,-0.3343712091445923,-0.0438470840454101,-0.6488724946975708,-0.6881194114685059,0.0742942988872528,jumping
1761304441192529200,-0.5379000306129456,0.0989810228347778,-0.1462726593017578,-0.6971294283866882,-0.823727548122406,0.0516929477453231,jumping
1761304441202665700,-0.7120334506034851,0.0815068483352661,-0.6838769912719727,-0.7429429888725281,-1.0033166408538818,0.1286597102880478,jumping
1761304441212802000,-1.0167343616485596,-0.2674798369407654,-0.5839643478393555,-0.7765395641326904,-1.035691499710083,0.2331145852804184,jumping
1761304441222938400,-0.8651750087738037,-0.0998910665512085,0.0484647750854492,-0.7545490860939026,-0.906802773475647,0.3497864007949829,jumping
1761304441233075000,-1.089266061782837,0.4252819418907165,1.1350994110107422,-0.5859552621841431,-0.6252021789550781,0.5104392170906067,jumping
1761304441243211300,-1.3397856950759888,0.40023934841156,2.484621047973633,-0.2786990702152252,-0.270910769701004,0.7138513922691345,jumping
1761304441253347800,-2.087432384490967,0.5525816082954407,3.542111396789551,0.1440072357654571,0.4017084240913391,0.9416974186897278,jumping
1761304441263484200,-1.570375919342041,0.9833383560180664,4.139296531677246,0.5276193022727966,1.0736404657363892,1.0669211149215698,jumping
1761304441273620700,0.4337877631187439,0.7636651992797852,3.521613121032715,0.8562551736831665,1.6478368043899536,1.0369895696640017,jumping
1761304441283757000,2.021385431289673,0.2413187026977539,2.4735984802246094,1.0236272811889648,1.879958748817444,0.8909971117973328,jumping
1761304441293893600,1.813560128211975,-0.4788970351219177,0.7297096252441406,1.0401201248168943,1.3509650230407717,0.7138513922691345,jumping
1761304441304030000,1.8567907810211184,-1.4712448120117188,-1.3851079940795898,1.001025915145874,0.4951680600643158,0.5238778591156006,jumping
1761304441314166300,2.0051474571228027,-1.804970383644104,-2.0631375312805176,0.9772028923034668,0.0834570080041885,0.3632250428199768,jumping
1761304441324302800,1.7407203912734983,-1.686176896095276,-1.6099557876586914,0.9417737722396852,0.0473406612873077,0.2282278090715408,jumping
1761304441334439200,1.256236910820007,-1.5000070333480835,-1.252058982849121,0.8977927565574646,-0.0540599822998046,0.1219403818249702,jumping
1761304441344575700,0.4329993724822998,-1.569263935089111,-1.0145635604858398,0.8941276669502258,-0.3600944578647613,0.118886150419712,jumping
1761304441354712000,-0.5983779430389404,-1.8126893043518064,-0.2758693695068359,0.9949174523353576,-0.1383569091558456,0.3613924980163574,jumping
1761304441364848600,-1.601586103439331,-2.481013059616089,2.698491096496582,1.1128873825073242,-0.0149657577276229,0.7327876687049866,jumping
1761304441374985000,-0.9150663614273072,-2.260539054870605,1.3761615753173828,1.157479166984558,0.224562719464302,0.9319238662719728,jumping
1761304441385121500,-0.2092959880828857,-0.8904207944869995,1.9446392059326167,1.1073896884918213,0.5238778591156006,0.7950940728187561,jumping
1761304441395257900,0.0917024612426757,0.602139949798584,2.7906885147094727,1.0608890056610107,0.8928295969963074,0.5935144424438477,jumping
1761304441405394400,0.2818741202354431,0.5790400505065918,3.13177490234375,1.0419527292251587,1.265446424484253,0.5452575087547302,jumping
1761304441415530800,0.0654339790344238,-0.3941819667816162,1.905864715576172,0.9625425934791564,1.44625723361969,0.5269321203231812,jumping
1761304441425667300,0.1624858379364013,-0.6873729228973389,0.0553674697875976,0.7579087615013123,1.4963467121124268,0.3913240134716034,jumping
1761304441435803600,0.3772749900817871,-0.1730751991271972,-1.0336894989013672,0.4824166297912597,1.4920707941055298,0.2208976447582245,jumping
1761304441445940000,0.2088208198547363,0.3073043823242187,-1.7420973777770996,0.2619007527828216,1.3326396942138672,0.1121668294072151,jumping
1761304441456076500,-0.3798387050628662,0.5448086261749268,-1.4848833084106443,0.2197522968053817,1.1218973398208618,0.0883437842130661,jumping
1761304441466212900,-0.9503484964370728,0.5519719123840332,-0.6842050552368164,0.2985515892505646,0.9245936870574952,0.1054475083947181,jumping
1761304441476349400,-0.999788761138916,0.5342187881469727,0.2461585998535156,0.3895678520202636,0.8879428505897522,0.0932305604219436,jumping
1761304441486485800,-0.4604275226593017,0.3594517707824707,0.4259366989135742,0.3895678520202636,0.9221503138542176,0.0675749778747558,jumping
1761304441496622300,-0.0375986099243164,0.0696842670440673,0.0244007110595703,0.316877007484436,0.9508601427078248,0.0852895453572273,jumping
1761304441506758700,0.0304267406463623,-0.2464380264282226,-0.023207664489746,0.2447970360517501,0.9807916283607484,0.0975064933300018,jumping
1761304441516895200,-0.0200908184051513,-0.3128039836883545,-0.1279792785644531,0.453095942735672,0.2636569440364837,0.179360032081604,jumping
1761304441527031600,-0.1371088027954101,0.0078246593475341,-1.7236204147338867,0.5209000110626221,-0.4052971601486206,0.1225512325763702,jumping
1761304441537168100,-0.7337923049926758,0.7622513771057129,-1.80236291885376,0.4604261219501495,-0.610541820526123,0.0541363395750522,jumping
1761304441547304400,-0.5683484077453613,0.6104443073272705,-0.6368637084960938,0.2680092453956604,-0.4755446016788482,-0.0509293898940086,jumping
1761304441557440800,-0.1584181785583496,1.0531411170959473,-0.3278436660766601,0.0346655808389186,-0.19211146235466,-0.2616716921329498,jumping
1761304441567577300,0.1584959030151367,1.2355430126190186,0.6044273376464844,-0.1278197914361953,0.2978644073009491,-0.4003340303897857,jumping
1761304441577713700,0.058821678161621,0.6458418369293213,1.449810028076172,-0.2573194205760956,0.7474479675292969,-0.3832302987575531,jumping
1761304441587850200,-0.1377975940704345,-0.1937003135681152,1.265080451965332,-0.3458922505378723,0.8879428505897522,-0.3056527078151703,jumping
1761304441597986600,-0.5300149917602539,-0.6257884502410889,0.1810503005981445,-0.3129065036773681,0.6344412565231323,-0.1950893402099609,jumping
1761304441608123100,-1.028318166732788,-0.7951416969299316,-1.2809381484985352,-0.2072299271821975,0.0558925233781337,-0.0527619309723377,jumping
1761304441618259500,-1.1892919540405271,-0.5011720657348633,-2.3598456382751465,-0.1430909633636474,-0.6355865597724915,0.0193180441856384,jumping
1761304441628396000,-1.0784409046173096,0.2513563632965088,-2.623939514160156,-0.1186570823192596,-1.2006202936172483,-0.0057266931980848,jumping
1761304441638532400,-0.7696993350982666,0.8489818572998047,-2.089840888977051,-0.1204896196722984,-1.4877184629440308,-0.0979646295309066,jumping
1761304441648669000,-0.3572741746902466,1.0319414138793943,-0.8791980743408203,-0.1950129866600036,-1.3759334087371826,-0.2323510199785232,jumping
1761304441658805200,0.2963979244232178,0.935755729675293,-0.3883819580078125,-0.3477247953414917,-1.0008732080459597,-0.4131618142127991,jumping
1761304441668941800,0.5703306198120117,0.9127709865570068,0.3499593734741211,-0.5364766120910645,-0.615428626537323,-0.5780905485153198,jumping
1761304441679078100,0.355148434638977,0.7141659259796143,0.6051225662231445,-0.5829010009765625,-0.2611372172832489,-0.6593332886695862,jumping
1761304441689214500,0.1719046831130981,0.2336037158966064,1.4700775146484375,-0.5010474920272827,0.062000997364521,-0.639175295829773,jumping
1761304441699351000,-0.1930105686187744,-0.6834264993667603,1.2370538711547852,-0.3581092059612274,0.2416664510965347,-0.5377746820449829,jumping
1761304441709487400,-0.5996338129043579,-1.4002834558486938,0.8472795486450195,-0.2170034945011139,0.1787491738796234,-0.3258106708526611,jumping
1761304441719624000,-0.9935592412948608,-1.8363215923309328,0.2208375930786132,-0.0887255668640136,-0.0571142174303531,-0.0594812519848346,jumping
1761304441729760300,-1.225695252418518,-1.6745634078979492,-0.1072463989257812,0.0261137206107378,-0.2996205687522888,0.1439308822154998,jumping
1761304441739896800,-0.9587905406951904,-1.08053719997406,-0.0480318069458007,0.1134648770093917,-0.4450022280216217,0.1982962936162948,jumping
1761304441750033200,-0.504611611366272,-0.2630746364593506,0.1375875473022461,0.1262926757335662,-0.4755446016788482,0.1146102175116539,jumping
1761304441760169700,0.0193140506744384,0.4190371036529541,0.0661582946777343,0.0285571087151765,-0.40468630194664,-0.0619246400892734,jumping
1761304441770306000,0.3179560899734497,0.7997334003448486,-0.1434526443481445,-0.1559187620878219,-0.2678565084934234,-0.2341835647821426,jumping
1761304441780442400,0.2910226583480835,0.7914643287658691,-0.1727323532104492,-0.3281776905059814,-0.1175880953669548,-0.3392492830753326,jumping
1761304441790579000,-0.0402413606643676,0.4650096893310547,-0.1185560226440429,-0.4234698712825775,-0.0003054236294701,-0.3392492830753326,jumping
1761304441800715500,-0.521414041519165,-0.2122979164123535,-0.0885047912597656,-0.4332434237003326,-0.0033596600405871,-0.2494547516107559,jumping
1761304441810851800,-0.8428459167480469,-0.812773585319519,-0.244938850402832,-0.3672719001770019,-0.1114796251058578,-0.1205659806728363,jumping
1761304441820988200,-0.9153831005096436,-1.0508840084075928,-0.2286434173583984,-0.2640387415885925,-0.2373141646385193,-0.0075592347420752,jumping
1761304441831124700,-0.7168585062026978,-0.9253829717636108,-0.0599279403686523,-0.1498102843761444,-0.2849602401256561,0.0608556568622589,jumping
1761304441841261000,-0.4146901369094848,-0.596077561378479,0.1911935806274414,-0.0624591335654258,-0.3167243003845215,0.0742942988872528,jumping
1761304441851397600,-0.2131717205047607,-0.1570255756378173,0.2557735443115234,-0.0123696569353342,-0.3723114132881164,0.0370326153934001,jumping
1761304441861534000,-0.1919715404510498,0.2905523777008056,0.2481355667114257,-0.0007635590736754,-0.4224008917808532,-0.0326039716601371,jumping
1761304441871670500,-0.1025110483169555,0.4565308094024658,0.1779041290283203,-0.0282516852021217,-0.4242334067821502,-0.1022405624389648,jumping
1761304441881806800,0.0134668350219726,0.3853254318237304,0.2227897644042968,-0.0673459097743034,-0.3552076816558838,-0.1511083394289016,jumping
1761304441891943400,0.1458089351654052,0.1706922054290771,0.1895055770874023,-0.0868930220603942,-0.2837385535240173,-0.1676012128591537,jumping
1761304441902079700,0.1386657953262329,-0.0689456462860107,0.0664997100830078,-0.09666658192873,-0.2116585820913314,-0.1566059589385986,jumping
1761304441912216000,0.0636214017868042,-0.384407639503479,0.0236320495605468,-0.1058292910456657,-0.1328592747449875,-0.1004080176353454,jumping
1761304441922352600,-0.1991264820098877,-0.6944087743759155,-0.1475296020507812,-0.119878776371479,-0.0760504826903343,-0.0057266931980848,jumping
1761304441932489200,-0.4613697528839111,-0.7567769289016724,-0.2175970077514648,-0.119267925620079,-0.0540599822998046,0.0907871723175048,jumping
1761304441942625500,-0.3971949815750122,-0.6336879730224609,-0.0671710968017578,-0.0942231863737106,-0.0528382882475853,0.1573695242404937,jumping
1761304441952761900,-0.0935289859771728,-0.5026850700378418,0.0765552520751953,-0.0813953951001167,-0.016798298805952,0.1659213900566101,jumping
1761304441962898400,0.172237753868103,-0.1309232711791992,0.1436786651611328,-0.1253764033317566,0.062000997364521,0.1329356282949447,jumping
1761304441973034800,0.3735376596450805,0.2050840854644775,-0.004617691040039,-0.2029540091753006,0.1567586809396743,0.0785702317953109,jumping
1761304441983171300,0.6518263816833496,0.3026857376098633,-0.1858205795288086,-0.2829749882221222,0.2807606756687164,0.0235939752310514,jumping
1761304441993307600,0.7812963128089905,0.2816228866577148,-0.1906909942626953,-0.335507869720459,0.4444677233695984,-0.0271063465625047,jumping
1761304442003444200,0.6145384907722473,0.485123872756958,0.1407432556152343,-0.326345145702362,0.5348731279373169,-0.0826934501528739,jumping
1761304442013580500,0.4764449596405029,0.4282307624816894,0.078312873840332,-0.248767539858818,0.4725667238235473,-0.1175117418169975,jumping
1761304442023717000,0.2251597642898559,0.2107257843017578,-0.0673189163208007,-0.1382041871547699,0.3314609825611114,-0.1254527568817138,jumping
1761304442033853400,-0.03921639919281,0.0422158241271972,-0.2930669784545898,-0.0465771034359931,0.1139993667602539,-0.1132358089089393,jumping
1761304442043989800,-0.3436893224716186,-0.0955629348754882,-0.5904970169067383,0.0340547338128089,-0.1615691035985946,-0.0979646295309066,jumping
1761304442054126300,-0.3207926750183105,-0.1799492835998535,-0.4344511032104492,0.127514362335205,-0.3417690396308899,-0.0881910696625709,jumping
1761304442064263000,-0.072045087814331,-0.1414787769317627,-0.1179609298706054,0.1696628332138061,-0.3533751368522644,-0.0942995473742485,jumping
1761304442074399200,0.1983656883239746,-0.0675923824310302,0.1369256973266601,0.1244601309299469,-0.222042977809906,-0.1071273386478424,jumping
1761304442084535600,0.2919291257858276,-0.0577635765075683,0.0041475296020507,0.0224486365914344,-0.0974301397800445,-0.1382805556058883,jumping
1761304442094672100,0.1909880638122558,0.0051929950714111,-0.005563735961914,-0.0520747303962707,0.0601684562861919,-0.1822615563869476,jumping
1761304442104808400,0.2167688608169555,0.1242396831512451,0.6309986114501953,-0.0600157417356967,0.3039728701114654,-0.2146364599466323,jumping
1761304442114945000,-0.0167367458343505,0.0717091560363769,1.1263923645019531,-0.0423011742532253,0.493946373462677,-0.2066954374313354,jumping
1761304442125081300,-0.4166887998580932,-0.21439790725708,0.915874481201172,-0.0062611843459308,0.5611395835876465,-0.1407239437103271,jumping
1761304442135218000,-0.7692534923553467,-0.5199779272079468,0.6377391815185547,0.0890309885144233,0.4927246570587158,-0.046042613685131,jumping
1761304442145354200,-0.8809815645217896,-0.7525380849838257,0.3782892227172851,0.2160872220993042,0.4004867374897003,0.0486387126147747,jumping
1761304442155490800,-0.7244384288787842,-0.7968677282333374,0.367828369140625,0.3388675153255462,0.3729985952377319,0.1219403818249702,jumping
1761304442165627100,-0.4072694778442383,-0.773618221282959,0.5390901565551758,0.4225535988807678,0.3980433344841003,0.178138330578804,jumping
1761304442175763700,-0.1273359060287475,-0.5383768081665039,0.7151479721069336,0.4243861436843872,0.5238778591156006,0.1946312040090561,jumping
1761304442185900000,0.2824680805206299,-0.2019293308258056,0.5515460968017578,0.3376458287239074,0.7144622206687927,0.1677539348602295,jumping
1761304442196036600,0.595291256904602,-0.070969820022583,0.0517139434814453,0.2344126403331756,0.8060893416404724,0.1359898746013641,jumping
1761304442206173000,0.5390268564224243,-0.0774996280670166,-0.6902265548706055,0.1446180939674377,0.7749360799789429,0.1280488520860672,jumping
1761304442216309200,0.3101152181625366,-0.101419448852539,-1.232694149017334,0.0731489583849906,0.6924717426300049,0.1341573297977447,jumping
1761304442226445800,0.1510789394378662,-0.0527167320251464,-1.3950543403625488,0.0102316914126276,0.5929036140441895,0.1384332627058029,jumping
1761304442236582100,0.0474994182586669,0.1637680530548095,-1.42315673828125,-0.0435228683054447,0.4346941709518432,0.1133885234594345,jumping
1761304442246718700,-0.1734123229980468,0.4720156192779541,-1.3979263305664062,-0.072232685983181,0.1830251067876815,0.0571905747056007,jumping
1761304442256855000,-0.2684917449951172,0.6412670612335205,-1.1791467666625977,-0.0343601591885089,-0.0522274412214756,-0.0032833039294928,jumping
1761304442266991600,-0.3327634334564209,0.5199217796325684,-0.693842887878418,0.0432174429297447,-0.2507528066635132,-0.0552053228020668,jumping
1761304442277128000,-0.268763780593872,0.1310853958129882,-0.5989894866943359,0.1262926757335662,-0.4425588250160217,-0.0655897259712219,jumping
1761304442287264500,-0.2757031917572021,-0.2350866794586181,-0.5665779113769531,0.1934858709573745,-0.5280774831771851,-0.0350473597645759,jumping
1761304442297400800,-0.2496631145477295,-0.3815517425537109,-0.0712108612060546,0.2673983871936798,-0.4162923991680145,0.0187071971595287,jumping
1761304442307537400,-0.0552437305450439,-0.6136889457702637,0.5224647521972656,0.3003841340541839,-0.2782409191131592,0.1005607321858406,jumping
1761304442317673700,-0.0341138839721679,-0.7198400497436523,0.1993923187255859,0.2466295808553695,-0.1414111405611038,0.1659213900566101,jumping
