timestamp,acc_x,acc_y,acc_z,gyr_x,gyr_y,gyr_z,activity
1761226675097166300,0.3519757741589099,0.0701134006679058,0.453330627721548,0.0394052118062973,-0.2160555720329284,-0.0350298658013343,jumping
1761226675107179500,0.0153823008818784,-0.0196773448944091,0.4975917942523956,-0.0160154402256011,-0.1862837821245193,-0.0566657707095146,jumping
1761226675117192200,0.0722678204891271,0.0357575420796871,0.5657102217108011,-0.0613198056817054,-0.1853428781032562,-0.0590812601149082,jumping
1761226675127205400,0.0613041260673664,0.0346299993544816,0.6064473057687282,-0.086820900440216,-0.1827565878629684,-0.0603376775979995,jumping
1761226675137218300,-0.1260516705868765,-0.0165799634009599,0.4994195942014455,-0.0879205167293548,-0.1436983942985534,-0.0679202303290367,jumping
1761226675147231200,-0.2323608951538801,-0.0407458518862724,0.3531844923615455,-0.0997028797864914,-0.0769757702946662,-0.0777107775211334,jumping
1761226675157244200,-0.2553883724601007,0.0052729719668626,0.352348041537404,-0.095376044511795,-0.0209447275847196,-0.0898617133498191,jumping
1761226675167257300,-0.2991315429988317,0.0958265185952186,0.4091325895547866,-0.0827000141143798,0.0194807462394237,-0.1107054725289344,jumping
1761226675177270500,-0.2994714607439935,0.0753121383547782,0.4512421310096979,-0.0843953862786293,0.0447661280632019,-0.1267867088317871,jumping
1761226675187283200,-0.2832208571615628,0.1061363156855106,0.6020744975119828,-0.1137427985668182,0.0388184152543544,-0.1487357169389724,jumping
1761226675197296400,-0.3279058933939784,0.1764215657889843,0.7663456067800521,-0.1333053112030029,0.0365057252347469,-0.1844226121902465,jumping
1761226675207309300,-0.4939166128709912,0.1571533862173557,0.6531646332800388,-0.1404548436403274,0.0420845039188861,-0.2163583189249038,jumping
1761226675217322200,-0.4681028110481798,0.0562467878788709,0.6790098531544209,-0.1232825145125389,0.0274759996682405,-0.1915208846330642,jumping
1761226675227335200,0.4664133966565132,-0.299766205906868,0.5234165558606386,-0.0930157676339149,-0.0500040017068386,-0.1172424331307411,jumping
1761226675237348400,1.2298315716825423,-0.6960702935487032,0.3405295934498309,-0.0691581070423126,-0.0641917288303375,-0.010236625559628,jumping
1761226675247361500,1.4084880569167435,-0.8841846352189778,0.3422410735428333,-0.0416910648345947,-0.0405261442065238,0.0779473856091499,jumping
1761226675257373700,1.0881604898225516,-0.793847361689806,0.4110878152757883,-0.0212233420461416,-0.0375745631754398,0.0925713330507278,jumping
1761226675267387600,0.3853066736135631,-0.5356862548470497,0.4472124371021986,-0.031199449673295,-0.0472564361989498,0.0458705760538578,jumping
1761226675277400600,-0.247684173024632,-0.2447854924410581,0.5166349328964949,-0.0614332519471645,-0.0378634668886661,-0.0291733089834451,jumping
1761226675287413500,-0.7572036844253539,-0.1626192504078149,0.4696504788815975,-0.0831420123577117,-0.039904735982418,-0.0922053903341293,jumping
1761226675297426400,-0.9840898014299572,-0.0028431144714355,0.2037456260442733,-0.0608995594084262,-0.0771751403808593,-0.1478912979364395,jumping
1761226675307439600,-1.0512460327927022,0.0833463917285203,-0.1088227782905101,-0.0246695540845394,-0.1761714369058609,-0.2020510286092758,jumping
1761226675317452500,-1.0289972299750894,0.1934329063445329,-0.0179693719327449,-0.0429766550660133,-0.2884196937084198,-0.2583662271499634,jumping
1761226675327465500,-1.092171844355762,-0.1258142451018095,-0.0117138186693191,-0.0608176216483116,-0.3167101442813873,-0.3072726428508758,jumping
1761226675337478700,-0.9000891105111688,-0.0546995584368705,-0.0607920300930738,-0.0318456254899501,-0.5164161324501038,-0.2958716452121734,jumping
1761226675347491600,-0.7815588118724525,0.3579828325539827,-0.0368652110606431,-0.0845818892121315,-0.5903878808021545,-0.3855650126934051,jumping
1761226675357504500,-1.446980576918274,0.0594061286926269,-0.0282277310967445,-0.132613867521286,-0.5485270023345947,-0.4266296029090881,jumping
1761226675367517400,-0.5014599774552508,0.426840095680952,0.3732031980395316,-0.1502931714057922,-0.4460954666137695,-0.4637197256088257,jumping
1761226675377530600,-0.7564262703120708,0.442325249582529,0.8916624237537384,-0.1110664084553718,-0.3238888382911682,-0.5325310230255127,jumping
1761226675387543600,-0.8814251804430038,0.4264233315736055,0.8424766603022813,-0.0368184521794319,-0.2080527245998382,-0.5628422498703003,jumping
1761226675397556500,-0.5429878830973058,0.2649018132746219,0.4750900395870208,0.0327206775546073,-0.1746891736984253,-0.5060383677482605,jumping
1761226675407569700,-0.1889980657022446,-0.3480196569442749,0.1403349378854036,0.1087200120091438,-0.1722359657287597,-0.3702994883060455,jumping
1761226675417582600,0.2406646131187677,-0.582172696211934,-0.227976396459341,0.1718166917562484,-0.0857223719358444,-0.2006569355726242,jumping
1761226675427595500,-0.1205062566204927,-0.6062362933665514,-0.7905120797872542,0.2091532349586486,-0.0572152696549892,-0.1539548933506012,jumping
1761226675437608400,-1.61333755254969,-0.7121808858722448,-0.7466331905722617,0.2388080656528473,0.037213496863842,-0.2028734385967254,jumping
1761226675447621600,-1.8381511010639369,-0.8690390885353088,-0.6936690776258707,0.2943374514579773,0.3294391632080078,-0.3034403026103973,jumping
1761226675457634600,-2.3287809473492205,-0.6040349839299917,-1.461144565218687,0.3375347256660461,0.5779150128364563,-0.4457500278949737,jumping
1761226675467647500,-2.088392374692857,-0.973370985147357,-1.050410385686159,0.366411030292511,0.7169309854507446,-0.5956382155418396,jumping
1761226675477660700,-1.869236851940304,-1.0762678805202246,-0.555876225438714,0.4009916484355926,0.776371419429779,-0.7298886775970459,jumping
1761226675487673600,-1.6863799924068152,-0.9719073423355816,-0.0789595549464225,0.4287164807319641,0.7606301307678223,-0.8222872614860535,jumping
1761226675497686500,-1.3781319354891777,-0.7636421930402517,0.6435726290702819,0.4493280053138733,0.6745802164077759,-0.9266192317008972,jumping
1761226675507699500,-1.3277674836471676,-0.3643833472460508,1.3350836518794298,0.429323673248291,0.4360910952091217,-0.9482465982437134,jumping
1761226675517712600,-0.7051655272174626,-0.3829764040350913,2.06030872824192,0.3758940100669861,0.1107612028717994,-0.8611119389533997,jumping
1761226675527725600,0.1216759762533009,-0.3292997589051723,2.450533788231015,0.3037337958812713,-0.1470045000314712,-0.6965903043746948,jumping
1761226675537738500,0.5766136007800698,-0.1914607294887304,2.153024421340227,0.2739623188972473,-0.2731959819793701,-0.4797525405883789,jumping
1761226675547751700,0.8798270975966006,-0.0672761314153671,1.6256407154142856,0.2911617159843445,-0.3093101382255554,-0.2527153193950653,jumping
1761226675557764600,0.93674360143058,0.2439157238692045,1.4111305342495442,0.3352362513542175,-0.3716084063053131,-0.0826333239674568,jumping
1761226675567777500,0.5004503254886716,0.8163935400187968,1.44086633182168,0.4058963060379028,-0.5049859285354614,0.0114518916234374,jumping
1761226675577790500,-0.2600003049686551,1.3772031302064656,1.30572779353559,0.5103793740272522,-0.6010278463363647,0.0187299754470586,jumping
1761226675587803600,-0.9274836056541652,1.6705910332530736,0.8297977959930897,0.6689035892486572,-0.5999699234962463,-0.0288551896810531,jumping
1761226675597816600,-1.244651101282239,1.7533552411794662,0.3739864573717117,0.8749139904975891,-0.5483032464981079,-0.0841530710458755,jumping
1761226675607829500,-1.2718541655063629,1.978375710442662,0.1285281802356243,1.0969160795211792,-0.5024355053901672,-0.0892625302076339,jumping
1761226675617842700,-0.8785842579286545,2.460346157193184,0.2744575771272182,1.3042080402374268,-0.5146663784980774,-0.0437736064195632,jumping
1761226675627855600,-0.4325872610308229,2.9443887340426445,0.7069523375689983,1.4170191287994385,-0.7412996292114258,0.0322181656956672,jumping
1761226675637868500,-0.4383608759962022,3.494767531108856,1.8339467812418937,1.4004055261611938,-1.0608941316604614,0.0056922826915979,jumping
1761226675647881500,-0.1805887684710323,3.4122084903657437,2.204659331509471,1.3955706357955933,-1.0861185789108276,0.0145488819107413,jumping
1761226675657894700,0.2285577034786343,3.228032657188177,1.196410509726405,1.4391659498214722,-0.9534260034561156,0.1429180353879928,jumping
1761226675667907600,0.2712370441781356,3.545571835672855,0.5340694673001766,1.4885107278823853,-0.836784303188324,0.2760607898235321,jumping
1761226675677920500,-0.19973047211878,4.253544748461247,0.2068289790123701,1.5927634239196775,-0.7547765374183655,0.4332458972930908,jumping
1761226675687933700,-0.2929207239262759,4.56312916854918,-0.2042301946908235,1.793742537498474,-0.6828017830848694,0.6010611057281494,jumping
1761226675697946600,-0.114154385109432,4.796176292401552,-0.7339946582734584,2.0902554988861084,-0.6896849870681763,0.7466174960136414,jumping
1761226675707959600,-0.079470399678545,4.991487267577648,-1.1078478446543216,2.4607558250427246,-0.8027341961860657,0.802720844745636,jumping
1761226675717972500,-0.1153189810425508,4.8636593445658685,-1.2011620881676672,2.794966697692871,-1.03850257396698,0.747665286064148,jumping
1761226675727985700,-0.1642279459797777,4.538848713773489,-0.6541700109302997,2.9797918796539307,-1.438023567199707,0.6130237579345703,jumping
1761226675737998600,-0.1203643456654623,4.268970281130075,0.3069850512444972,2.981775283813477,-2.007037401199341,0.4637823402881622,jumping
1761226675748011500,-0.0003496536878868,4.005314668524265,1.015057332754135,2.7728147506713867,-2.7554075717926025,0.326069712638855,jumping
1761226675758024400,-1.616898313771188,4.015185489675402,1.811047259430587,2.52998161315918,-3.268282175064087,0.0849127620458602,jumping
1761226675768038400,-0.949918870954588,3.3500942717581985,-0.4771463875949382,2.479107141494751,-3.241647243499756,-0.0766524076461792,jumping
1761226675778051600,-0.1978268304545432,2.095569426715374,-3.177726073013246,2.555582046508789,-2.587397813796997,-0.1781558692455291,jumping
1761226675788064500,-0.1993161191642284,1.126549037992954,-5.436337651723623,2.720600128173828,-0.6665813326835632,-0.3068362772464752,jumping
1761226675798077700,0.1000577994894236,0.9837725521743296,-7.082869179475307,2.7703747749328613,2.2008092403411865,-0.2867576479911804,jumping
1761226675808090600,1.607091205506027,1.2765291715800762,-5.954573590075969,2.483484268188477,3.513150215148926,-0.0234874784946441,jumping
1761226675818103600,2.6718881362020968,2.0770009198457,-1.596338925345242,1.7698609828948977,3.228890895843506,0.4499754309654236,jumping
1761226675828116700,4.775074759922921,1.134693766003847,3.1517043275281784,0.9062480926513672,1.9805418252944944,1.067804217338562,jumping
1761226675838129400,6.172999483379721,-0.1586754812180995,5.819817913627624,0.2124690413475036,0.5523204207420349,1.521498203277588,jumping
1761226675848142600,4.697843343943357,-0.3033230216056108,5.491151191928982,-0.2012579143047332,-0.6256257891654968,1.7437505722045898,jumping
1761226675858155500,2.500640758180618,-0.5260550876706839,3.458457031321525,-0.3620609045028686,-1.1047638654708862,1.817271709442139,jumping
1761226675868168700,1.054847929742187,-1.578548709371686,0.6657301003426312,-0.3105376958847046,-0.8897123336791992,1.7379318475723269,jumping
1761226675878181400,-0.4300184334561228,-1.9063544303268196,-1.6407473913922903,-0.1486625224351883,-0.4607663154602051,1.5800700187683103,jumping
1761226675888194600,-0.8254980529725551,-1.663307305985689,-2.808644046556949,0.0912925526499748,0.2394323945045471,1.3963228464126587,jumping
1761226675898207700,-0.217366447378695,-1.7537369339734314,-3.14427914596349,0.2426890134811401,0.5172001123428345,1.167228102684021,jumping
1761226675908220400,-0.7825218116857111,-1.1467033527493475,-0.0070566405132412,-0.0291673652827739,-0.0925575643777847,0.9713224172592164,jumping
1761226675918233600,-0.1212432839244604,-1.431235749167204,4.873600308343768,-0.6246022582054138,-1.0756969451904297,0.9407037496566772,jumping
1761226675928246500,0.7052374964751302,-2.200398751455545,7.856101623159646,-1.467983603477478,-2.214076519012451,0.9376103281974792,jumping
1761226675938259700,-0.5843371807694435,-1.6383470522522925,9.015819940304755,-2.331491708755493,-3.141324758529663,1.0342363119125366,jumping
1761226675948272400,-1.0618217142775654,-1.235627836871147,7.327159581875801,-2.994334936141968,-3.281838178634644,1.155174970626831,jumping
1761226675958285600,-2.0735662692219017,-0.7511188115537166,2.591428405825793,-3.4581074714660645,-2.611269950866699,1.2292028665542605,jumping
1761226675968298800,-3.8699233245208857,0.2020563577830791,-2.3045590908929703,-3.770728826522827,-1.3607895374298096,1.296054124832153,jumping
1761226675978311400,-4.377462512291968,0.4140373127311468,-6.134393566131592,-3.982266664505005,0.1402114182710647,1.3147120475769043,jumping
1761226675988324600,-4.54102898042202,-0.0715887339174747,-8.055639860641955,-4.027184963226318,1.5771607160568235,1.1835964918136597,jumping
1761226675998337500,-4.433077724269032,-0.3010749504178762,-7.471330152401328,-3.951843500137329,2.1712279319763184,1.008305549621582,jumping
1761226676008350700,-3.782577926284074,-1.09332247569561,-3.798908883360028,-3.832863092422485,2.107304811477661,0.8738619685173035,jumping
1761226676018363400,-2.1102534933671357,-2.032476133942604,-0.2648030290752649,-3.774226427078247,1.7375726699829102,0.8927022218704224,jumping
1761226676028376600,0.7479337517768144,-2.2271838825285437,2.687570858502388,-3.838778734207153,1.0491266250610352,1.0843513011932373,jumping
1761226676038389800,1.9504186129808423,-1.5985124699920414,5.602220287841559,-4.0522780418396,-0.1455309092998504,1.2388478517532349,jumping
1761226676048402400,2.0106290437936782,-1.0256202278226614,7.0835372879952185,-3.953425168991089,-1.556324124336243,1.5432995557785034,jumping
1761226676058415600,1.6002376863494514,-1.1407733781784772,3.9529146192014215,-3.3726954460144043,-2.455987930297852,1.7731060981750488,jumping
1761226676068428500,-0.1012459132954478,-1.757007333946228,-1.8919518109649416,-2.530145168304444,-3.005645513534546,1.8637611865997317,jumping
1761226676078441700,-1.9745280951038,-2.907273347613215,-5.6948366122186185,-1.6479912996292114,-3.1569032669067383,1.8221449851989744,jumping
1761226676088454400,-3.7036747777000074,-4.220324031382799,-8.124377296781539,-0.7383719682693481,-2.753426074981689,1.5155584812164309,jumping
1761226676098467600,-5.241371544462442,-5.110757205602527,-9.673442137515543,-0.0249390732496976,-1.980620622634888,1.2888739109039309,jumping
1761226676108480500,-4.409319539801776,-5.725953635016084,-8.972845890974998,0.3472048342227936,-1.0503332614898682,0.9944536089897156,jumping
1761226676118493400,-3.6654280491530895,-5.299553099796175,-6.492359447550773,0.3484618663787842,-0.1955429464578628,0.6851873397827148,jumping
1761226676128506600,-2.180093630051613,-4.842167059203982,-2.9521798263102768,0.1323546767234802,0.4767127633094787,0.3899753391742706,jumping
1761226676138519600,-0.6487187597870826,-4.356595957612991,0.0159784903764724,-0.1028599664568901,1.0114837884902954,0.0483626313507556,jumping
1761226676148532700,-0.5669006005391478,-3.555684064364433,1.974375242629647,-0.2995166778564453,1.3183610439300537,-0.3260379135608673,jumping
1761226676158545400,0.189669169896841,-3.125841279736161,3.653444181370735,-0.480548232793808,1.4108688831329346,-0.7027199268341064,jumping
1761226676168558600,1.1415051995843648,-2.1889976519972083,4.783669862049818,-0.5534186959266663,1.3801757097244265,-1.0204248428344729,jumping
1761226676178571500,1.9861074737384916,-1.2255080093950033,4.771988776606321,-0.4672228395938873,1.3741213083267212,-1.2520413398742676,jumping
1761226676188584400,2.5731851853877306,-0.1766162115782499,4.316830348935723,-0.296860784292221,1.4213340282440186,-1.3999210596084597,jumping
1761226676198597600,2.8965859493821857,0.7156757422506809,4.121752013471722,-0.0818110555410385,1.3720024824142456,-1.48565936088562,jumping
1761226676208610600,3.1702982611000534,1.1673106719702482,4.151569644108414,0.1537522077560424,1.251466155052185,-1.5622531175613403,jumping
1761226676218623700,3.243659265387058,1.438803554072976,3.893803089541197,0.4240153729915619,1.1604377031326294,-1.6188918352127075,jumping
1761226676228636400,3.3429026066884395,1.746981029972434,3.4948481951296326,0.6823868155479431,1.0820181369781494,-1.6533067226409912,jumping
1761226676238649600,3.285841579817235,2.174753438067436,3.414813119906187,0.9005191326141357,0.962060570716858,-1.6591148376464844,jumping
1761226676248662500,3.1222783265575766,2.280049211275577,3.2780770832955834,1.075102686882019,0.9390376806259156,-1.6673187017440796,jumping
1761226676258675700,2.6516753692567345,2.385945288464427,2.7529461247324942,1.182925820350647,0.9670333862304688,-1.6165395975112915,jumping
1761226676268689000,2.368690494541824,2.366236963909864,2.1939847927600145,1.2438842058181765,0.997946560382843,-1.521694302558899,jumping
1761226676278702000,2.0808295382231474,2.1163824976414443,1.219598493090272,1.3323605060577393,1.047873616218567,-1.4329357147216797,jumping
1761226676288715000,1.3336271694608033,1.4556664260685444,-0.4539624958842992,1.5040278434753418,1.2057751417160034,-1.456283688545227,jumping
1761226676298728000,-0.0274492940701544,0.3975146324753761,-2.339491580325365,1.7251994609832764,1.3670045137405396,-1.603501319885254,jumping
1761226676308740900,-1.4079590646065772,-0.526638440516591,-3.4039334139734505,1.9125299453735352,1.5621143579483032,-1.7812085151672363,jumping
1761226676318754000,-2.081930192941427,-1.3197101416587829,-3.887852656704187,1.940416932106018,1.9804303646087649,-1.8728421926498413,jumping
1761226676328766700,-1.84671040122509,-1.9509394219845533,-3.673814184704423,1.6390475034713743,2.6123626232147217,-1.653332233428955,jumping
1761226676338781000,0.3899712313584983,-2.660330384877324,-2.4150012870788573,0.9836100935935974,3.018286228179932,-0.9782408475875854,jumping
1761226676348793900,4.222591391792893,-4.43822911568284,-0.7798620909571647,0.3216551840305328,2.633740901947021,-0.0317761823534965,jumping
1761226676358806800,6.696933925634622,-7.233876318022609,-1.0979209094017743,0.129670038819313,1.3597798347473145,0.7636450529098511,jumping
1761226676368820000,5.593477593937516,-9.882119959264992,-4.786662614125013,0.5622093081474304,-0.3585325479507446,1.171324610710144,jumping
1761226676378833000,2.10887431396842,-11.004833364617824,-10.596972694694996,1.4771238565444946,-1.4516485929489136,1.2266638278961182,jumping
1761226676388845800,-1.343123165950179,-11.164247681504488,-16.740456745254992,2.4333841800689697,-2.012662172317505,1.0404225587844849,jumping
1761226676398859000,-4.659757651177048,-10.475941592216492,-19.572890832722187,3.150571346282959,-1.7307215929031372,0.7249860167503357,jumping
1761226676408872000,-7.1716633152157065,-9.405085799872875,-19.969797562432287,3.4381728172302246,-0.7470767498016357,0.3102130591869354,jumping
1761226676418885000,-8.2177020616889,-7.770805266407132,-17.201476173913477,3.189868927001953,0.3188335001468658,-0.0070682242512702,jumping
1761226676428897800,-6.807880856472253,-6.017972003275156,-11.097826121091842,2.38724684715271,1.0697309970855713,-0.1308458149433136,jumping
1761226676438911000,-4.403121561944484,-4.224361908596753,-3.624904900106788,1.2238527536392212,1.5970182418823242,-0.0913040116429328,jumping
1761226676448924000,-2.074807355324179,-2.473234280338884,2.410041326583922,0.0559615530073642,1.880054593086243,0.1223678588867187,jumping
1761226676458936800,0.1379685010150075,-0.997528105804324,5.936636951369047,-0.7830367088317871,1.7676314115524292,0.3871609270572662,jumping
1761226676468949800,1.774431931477785,0.1782218932092189,7.236179918789863,-1.1969811916351318,1.1683263778686523,0.6355727314949036,jumping
1761226676478963000,2.952312512779236,1.3038690139263869,7.2012500597059725,-1.2377099990844729,0.3625648915767669,0.8339158892631531,jumping
1761226676488976100,3.422866077980399,2.331949494382739,6.307367037293314,-1.0940489768981934,-0.2913360595703125,0.9084895849227904,jumping
1761226676498988800,2.456218848130107,2.8938135620594023,5.423778029879927,-0.9014363288879396,-0.6077675223350525,0.7620602250099182,jumping
1761226676509002000,1.0273736473612487,3.030903818935156,5.191904041460156,-0.765701949596405,-0.8183594346046448,0.450113981962204,jumping
1761226676519015000,0.2017734491884708,3.273689661991596,6.301207930141687,-0.7469780445098877,-1.0699341297149658,0.0604988448321819,jumping
1761226676529027800,-0.0444375460110604,3.6965591004759073,7.828990328872203,-0.8342596888542175,-1.3190947771072388,-0.2755135595798492,jumping
1761226676539040800,0.3465538221754133,4.5143321121543645,8.976137333735823,-0.9809295535087584,-1.5100948810577393,-0.4896564781665802,jumping
1761226676549054000,1.1548526108048855,5.498702045699954,9.606161914446949,-1.1739099025726318,-1.7138231992721558,-0.5809705257415771,jumping
1761226676559067100,2.025896171030402,6.373496921283007,9.839134219497442,-1.373686909675598,-1.958420991897583,-0.5592032074928284,jumping
1761226676569079800,2.773269366315007,6.9610045487821095,9.279956029903888,-1.489073395729065,-2.2000749111175537,-0.4961142838001251,jumping
1761226676579093000,2.918983659151196,7.18079588522017,7.39459937942028,-1.424873113632202,-2.3671915531158447,-0.4290249943733215,jumping
1761226676589106000,2.914804912161827,7.156632334822416,4.515212402120232,-1.1674559116363523,-2.300667762756348,-0.3058971762657165,jumping
1761226676599118800,2.741052273321152,7.061157698404789,1.6411930893331763,-0.7751069664955139,-1.983662724494934,-0.1383121758699417,jumping
1761226676609131800,2.1746434018217027,7.10100923179984,-0.3266962984085083,-0.3113155364990234,-1.506568431854248,0.0482780411839485,jumping
1761226676619145000,1.6209471507705746,7.049642032656073,-1.123667345076799,0.1185229271650314,-0.8967068791389465,0.1868300586938858,jumping
1761226676629158100,0.9828494459800422,7.099310611188411,-0.7503092487365007,0.4333102703094482,-0.323745846748352,0.3037464618682861,jumping
1761226676639170800,0.8797133350238203,6.890796455568075,0.6198287653893232,0.5857003331184387,0.1391997188329696,0.3638302981853485,jumping
1761226676649184000,0.7618990026347339,6.719380150720477,2.3262135810792444,0.6253830194473267,0.500150740146637,0.3654003739356994,jumping
1761226676659197000,0.63280120581761,6.474072680231928,3.5323914515823125,0.5899555087089539,0.7067020535469055,0.2822919189929962,jumping
1761226676669209900,0.6336331265971065,6.080168054947257,4.274337945643067,0.5023511648178101,0.8378540277481079,0.1849680542945861,jumping
1761226676679222800,0.5851889752931893,5.6161453528195615,4.497545228004455,0.4274713695049286,1.0606770515441897,0.105594664812088,jumping
1761226676689236000,0.3796577810063958,4.939446699216962,4.148132655397057,0.3621044456958771,1.2842031717300415,0.0268994309008121,jumping
1761226676699249000,0.0347227922044694,4.241082741773128,3.84127853705585,0.3339926600456238,1.3578203916549685,-0.0210606381297111,jumping
1761226676709261800,-0.002249970883876,3.1223095984786746,3.4482752445250746,0.3896850943565368,1.0568468570709229,-0.0638085678219795,jumping
1761226676719275000,0.1272781801745295,1.3972715202450752,2.6846523407071827,0.5719201564788818,0.6384477615356445,-0.1104216054081916,jumping
1761226676729288000,0.1933444974087178,-0.0994219127386808,1.1671008286118507,0.8307944536209106,0.3728717267513275,-0.1695810854434967,jumping
1761226676739300900,-0.3290902078077197,-1.2381488797813651,-0.6308972718924284,1.073076248168945,0.4550710022449493,-0.3369407653808594,jumping
1761226676749313800,-2.020239022051543,-1.7988158466279505,-2.027553875109553,1.1875885725021362,0.6636330485343933,-0.4454423189163208,jumping
1761226676759327000,-3.0989149866268035,-1.9807477002710103,-2.7832617680191998,1.2213377952575684,0.9905555248260498,-0.4921677410602569,jumping
1761226676769340000,-3.487141858536005,-2.606272631475329,-3.801270351794362,1.301504373550415,1.254203200340271,-0.5391587615013123,jumping
1761226676779352800,-4.250573915956914,-3.096846071398258,-5.279393524342775,1.5338191986083984,1.5061612129211426,-0.582507312297821,jumping
1761226676789366000,-4.0435774714231485,-4.419543704435229,-7.496968451526761,1.8929181098937988,1.890117645263672,-0.6809544563293457,jumping
1761226676799379000,-3.9344770452350377,-5.714509865459799,-9.280852686482667,2.176289796829224,2.70831561088562,-0.8588943481445312,jumping
1761226676809391900,-3.683361180728674,-6.642319122871756,-9.302402839511632,2.0777783393859863,3.78256106376648,-0.8545669913291931,jumping
1761226676819404800,-1.3710039833053946,-6.8330047763347626,-5.994820844790339,1.4923831224441528,4.260657787322998,-0.4562952518463135,jumping
1761226676829418000,2.3447385410681365,-7.226193362304568,-0.8403338030546903,0.7257720232009888,3.777832508087158,0.054774772375822,jumping
1761226676839431000,4.374382958716154,-8.24543528726697,2.4826316387593743,0.2108855247497558,2.5824694633483887,0.4849240183830261,jumping
1761226676849443800,4.623011682581901,-8.99175575862825,2.2808044135570524,0.1037976071238517,1.1574785709381104,0.7708383202552795,jumping
1761226676859457000,3.8446746092349287,-9.55940542396903,-0.1499257730513811,0.2819801270961761,-0.2364189028739929,0.9290993213653564,jumping
1761226676869470700,2.4877415291190146,-9.374515305042266,-2.645015911367536,0.4971812069416046,-1.3548660278320312,1.036243200302124,jumping
1761226676879484000,1.034802555252984,-8.418688744413853,-4.29438120124042,0.5868977904319763,-1.9942626953125,1.1262553930282593,jumping
1761226676889496800,-0.4039781294010579,-7.237596215328574,-5.349888617804647,0.5533917546272278,-2.083065986633301,1.1789652109146118,jumping
1761226676899510000,-1.9069605795264244,-6.104301794728636,-5.730414121556282,0.376226007938385,-1.731903910636902,1.1039687395095823,jumping
1761226676909523000,-3.3112574683636424,-5.032248901554942,-4.816913375481963,-0.0003991026896983,-1.0802024602890017,0.9076682329177856,jumping
1761226676919535900,-3.783111594769359,-3.909550693771243,-2.69577286965847,-0.6597972512245178,-0.3596693575382232,0.6645639538764954,jumping
1761226676929549000,-3.150925744371116,-2.2563789973527197,0.5881318968772887,-1.5330051183700562,0.1640553474426269,0.4986564815044403,jumping
1761226676939561700,-1.7253738860592245,-0.2751753700077534,3.58476519742012,-2.3217692375183105,0.5299129486083984,0.3892790973186493,jumping
1761226676949575000,-0.7661173509821295,1.4905173746973277,4.460364082862436,-2.7700135707855225,0.5631863474845886,0.3068439364433288,jumping
1761226676959587800,-0.3045185150004923,2.8103467588216064,3.946130658149719,-2.787508010864258,0.2252556979656219,0.2378960400819778,jumping
1761226676969601000,0.0888220466606318,3.0342163044840094,2.6783207995980978,-2.5037317276000977,-0.2222029119729995,0.0792966112494468,jumping
1761226676979614000,-0.0578974776953458,2.805298827782273,1.5337000983417033,-2.0986883640289307,-0.5416584014892578,-0.0810216888785362,jumping
1761226676989627000,0.1991017457611858,2.862303156030178,0.975593921893835,-1.7044793367385864,-0.7678563594818115,-0.1656360328197479,jumping
1761226676999640000,0.7428818752147257,3.1237165426671503,1.4081220000833272,-1.356329321861267,-1.0157963037490845,-0.1777526289224624,jumping
1761226677009652700,1.2237098739318548,3.4915777951568363,2.4650538964927198,-1.08010995388031,-1.3019275665283203,-0.1480021923780441,jumping
1761226677019666000,1.3242982001014052,3.8020577027797695,3.535813242724537,-0.8369830250740051,-1.520293116569519,-0.1014655828475952,jumping
1761226677029678800,1.1752047862209378,3.948205126336217,4.09527258734703,-0.6357239484786987,-1.5872544050216677,-0.1104573681950569,jumping
1761226677039692000,0.8301213288590311,4.303548258036375,4.581738591951131,-0.5432507395744324,-1.5314971208572388,-0.1441982835531234,jumping
1761226677049704700,0.5976501051984727,4.718640048256516,5.5293537890732285,-0.6060498952865601,-1.4059278964996338,-0.1655485183000564,jumping
1761226677059718000,0.4676230647072196,5.056449861353635,6.630555035319924,-0.7673434615135193,-1.3784719705581665,-0.2023123949766159,jumping
1761226677069731000,0.2541843121662736,5.191587815117836,7.062472872656583,-0.8620685935020447,-1.2509124279022217,-0.3252921402454376,jumping
1761226677079743700,-0.0175721893087029,4.897484457278251,6.104401747971773,-0.8767828345298767,-1.0003199577331543,-0.5238403677940369,jumping
1761226677089757000,-0.11751403426826,4.959406368184089,5.306353427460789,-0.8617774844169617,-0.7539770007133484,-0.6686339378356934,jumping
1761226677099769900,0.2048880740776658,5.361007393190264,5.310329345354438,-0.8371179699897766,-0.5300701856613159,-0.6957129240036011,jumping
1761226677109783000,0.7114796057350933,5.632515472862124,5.4985974162817,-0.8203212022781372,-0.3789539337158203,-0.6733800768852234,jumping
1761226677119795700,0.952464098457992,5.845632153841853,5.9990171274364,-0.817414402961731,-0.3837548196315765,-0.6182531714439392,jumping
1761226677129809000,1.264229661977291,5.725539208996295,6.383746512618661,-0.7802488207817078,-0.5136195421218872,-0.5649014115333557,jumping
1761226677139822000,1.3054190198473632,5.30042053028047,6.356390303659439,-0.7158187031745911,-0.7152038216590881,-0.5435695052146912,jumping
1761226677149834800,1.1017189865104853,4.613792018815875,6.217762754213809,-0.6710743308067322,-1.0393285751342771,-0.5676866769790649,jumping
1761226677159848000,0.7893611561864614,3.663590896853804,5.870744967788458,-0.6107524037361145,-1.3700343370437622,-0.6668103337287903,jumping
1761226677169860900,0.2353983631536364,2.621615162035823,4.588725966620445,-0.5232954025268555,-1.3932353258132937,-0.8321524262428284,jumping
1761226677179874000,-0.5740634779058397,1.977294929468632,2.812138318413496,-0.4616272449493408,-1.2137913703918457,-1.0043615102767944,jumping
1761226677189886700,-1.4179644719228148,1.682274456784129,1.6927859139263628,-0.3901830017566681,-0.9991731643676758,-1.1504982709884644,jumping
1761226677199900000,-1.890795772797614,1.3175439035356045,0.538061751806736,-0.2587581276893616,-0.6360186338424683,-1.3219650983810425,jumping
1761226677209913000,-2.337926669096201,0.9177671713471413,-0.9224795868217944,-0.0994349643588066,-0.1153901517391204,-1.4735039472579956,jumping
1761226677219925800,-2.6579218624308703,0.7554623937159777,-2.1301877356320618,0.0449784100055694,0.4646908044815063,-1.5443836450576782,jumping
1761226677229939000,-2.4221910524524746,0.5594967540234327,-3.019626053595543,0.1484722197055816,0.9188344478607178,-1.5605404376983645,jumping
1761226677239952000,-2.086943198797852,-0.1574783803880214,-3.531771273857355,0.1937547475099563,1.345254898071289,-1.575882077217102,jumping
1761226677249965000,-1.8631937723837797,-1.5538479833573102,-4.033255983895063,0.1953749358654022,1.629609227180481,-1.571635127067566,jumping
1761226677259977200,-1.4496534493893385,-2.825209396910667,-4.17117859994173,0.1472055315971374,1.7398080825805664,-1.3936501741409302,jumping
1761226677269990400,0.1516022548962384,-4.9273459270566695,-4.636643902093172,0.0243712253868579,1.853993535041809,-1.1199077367782593,jumping
1761226677280003300,1.8023557111918924,-7.746706013417244,-5.19575779427886,-0.187362864613533,1.5339363813400269,-0.7790849804878235,jumping
1761226677290016500,3.70074953790307,-10.425209768366813,-4.845333998802304,-0.3594619929790497,0.3486329615116119,-0.4531256854534149,jumping
1761226677300030500,4.476636003227532,-12.424379845035077,-5.251379143735766,-0.3341350853443146,-1.0967774391174316,-0.3295787274837494,jumping
1761226677310043400,2.464410922414064,-11.985806056940556,-8.079888166713713,-0.0696784853935241,-2.283682107925415,-0.2587037682533264,jumping
1761226677320056300,0.5770619290694594,-11.228874759715795,-11.96310088865757,0.3830969929695129,-3.253304958343506,-0.2260249257087707,jumping
1761226677330069200,-1.4033064164951443,-10.934390293604135,-15.738180568140743,1.0483429431915283,-3.513954401016236,-0.3421720564365387,jumping
1761226677340082400,-3.3507045126110317,-9.902707989263536,-19.698088407230376,1.7913947105407717,-2.934854030609131,-0.4609740674495697,jumping
1761226677350095600,-3.689975045910477,-7.520175139591097,-21.55464449516535,2.3559274673461914,-1.8454482555389404,-0.3071610629558563,jumping
1761226677360108300,-1.7489323101706802,-4.720259173890948,-19.737683920037743,2.509587049484253,-0.848071813583374,0.1840965449810028,jumping
1761226677370121500,0.9181440418355168,-2.237251687556505,-14.266433944886922,2.2432703971862797,-0.2510555982589721,0.8354458212852478,jumping
1761226677380134400,2.570545192272961,-0.6086486152052879,-7.901485656240582,1.8783777952194212,0.0302405096590518,1.3932890892028809,jumping
1761226677390147300,2.3319163227654998,0.3671609952658414,-3.438035005539656,1.7123095989227295,0.0031180256046354,1.7255059480667114,jumping
1761226677400160300,1.5304118704512717,0.7767068417966365,-1.1601228062927722,1.7850667238235474,-0.1031295806169509,1.8489689826965328,jumping
1761226677410173400,1.3519463777445255,2.0052455971896648,0.0928998174935579,1.814200043678284,-0.1708801686763763,1.8825865983963013,jumping
1761226677420186600,1.5120349406309426,3.33188875298202,2.1146938139021394,1.595943570137024,-0.1244492828845977,1.745272159576416,jumping
1761226677430199300,0.8090471227787435,3.755901516282558,4.845125324487686,1.1833058595657349,-0.1146580576896667,1.419918417930603,jumping
1761226677440212500,-0.0334573023132979,3.866341082119941,7.629380195197463,0.5689825415611267,-0.1692573875188827,1.0174846649169922,jumping
1761226677450225400,-0.3453372859925031,4.188914163118601,9.87367712509036,-0.1238608509302139,-0.2178116738796234,0.6543803811073303,jumping
1761226677460238300,-0.1227507658779621,4.565884020215273,10.589757356488704,-0.7147558331489563,-0.1869115382432937,0.3060990869998932,jumping
1761226677470251300,-0.0307326996549963,5.107606048095226,10.148995118439196,-1.1765973567962646,-0.2052150517702102,-0.0082168243825435,jumping
1761226677480264400,0.4094268963262438,5.537400317406654,9.474197330021855,-1.4843288660049438,-0.2294588685035705,-0.2694872915744781,jumping
1761226677490277400,0.7599407081738114,5.904002509745955,8.128626186397671,-1.604590892791748,-0.1977202743291854,-0.4912862181663513,jumping
1761226677500290300,0.985662895965576,6.351498439964652,6.313071386414766,-1.530472993850708,-0.1305902451276779,-0.6634148955345154,jumping
1761226677510303500,1.3316969320505856,6.676431235831975,4.471484904074669,-1.3034675121307373,0.0582677945494651,-0.767280101776123,jumping
1761226677520316400,1.709665737056732,7.104563124889135,3.1132068390905854,-1.002660632133484,0.2916336953639984,-0.8077175617218018,jumping
1761226677530329300,2.1380970474518834,7.635067593184113,2.8931115512698886,-0.7013587355613708,0.4661409556865692,-0.781379759311676,jumping
1761226677540342300,2.796677714431285,7.950273360285163,3.4635306813240048,-0.4125404953956604,0.5154659152030945,-0.7059230804443359,jumping
1761226677550355500,3.238666863927245,8.092291721212863,4.505921426683664,-0.1826878637075424,0.4632589519023895,-0.6314866542816162,jumping
1761226677560368400,3.3868794033199547,7.994483088889718,5.70451278758049,-0.0396135263144969,0.2942113280296325,-0.5231434106826782,jumping
1761226677570381300,3.670315236672759,7.996013367196917,6.729411715391278,0.0650185197591781,0.0738935247063636,-0.3742199838161468,jumping
1761226677580394500,4.023749904403091,7.821506110596657,6.883572349533439,0.1736033111810684,-0.1078997105360031,-0.217249795794487,jumping
1761226677590407400,4.079299357667565,7.707222144290804,6.516267561882734,0.2688020169734955,-0.2927653193473816,-0.0409516803920269,jumping
1761226677600420400,4.081999264276027,7.266552845221757,6.0171986808151,0.3662651777267456,-0.455621600151062,0.1292370855808258,jumping
1761226677610433300,3.7042660215914247,6.5518339653044935,5.136118441352248,0.478166788816452,-0.6267797946929932,0.2803944051265716,jumping
1761226677620446500,3.0723528506547213,5.460305971810222,3.932187472993135,0.6536933183670044,-0.7830013632774353,0.3829572796821594,jumping
1761226677630459400,2.206487423719466,3.9765070917129512,2.408586159339547,0.8937556743621826,-0.9079015851020812,0.3854790925979614,jumping
1761226677640472300,1.022256304347515,2.481849548470974,0.8143494669705629,1.1698036193847656,-0.9376522898674012,0.2559152245521545,jumping
1761226677650486500,-0.4921561790697276,0.9815127905488014,-0.7612175962418317,1.3971017599105835,-0.7503131628036499,0.0571526736021041,jumping
1761226677660499500,-1.895076518856734,-0.202541510951519,-2.0064450361073014,1.507727861404419,-0.4692569375038147,-0.1651389896869659,jumping
1761226677670512400,-3.2845863190591333,-1.6465028861790894,-2.709802564054727,1.4522355794906616,0.0112277073785662,-0.4270019829273224,jumping
1761226677680525300,-4.471811359550059,-3.1772195847958327,-3.36930107653141,1.1961530447006226,0.4827651381492615,-0.6575103402137756,jumping
1761226677690538500,-5.071128375047445,-4.593531905597448,-3.818896024855971,0.8506909608840942,0.9918234944343568,-0.844082236289978,jumping
1761226677700551400,-5.112170579531789,-6.410377329912781,-5.093303966498374,0.5679863095283508,1.630049705505371,-1.0525531768798828,jumping
1761226677710564400,-4.889421562331915,-8.160304350209236,-6.860550954908132,0.3923014104366302,2.48837685585022,-1.1667426824569702,jumping
1761226677720577500,-3.0769197201788425,-9.41244551498592,-7.40989281014204,0.156551718711853,3.019530296325684,-0.94313782453537,jumping
1761226677730590500,0.9384788277253509,-11.26993508437872,-5.165961206430197,-0.1788465082645416,2.352475881576538,-0.4829879403114319,jumping
1761226677740603400,4.495158040606976,-13.735511543440818,-1.8873697438716888,-0.4638910293579101,0.4237294495105743,0.019744973629713,jumping
1761226677750616300,4.881272450406849,-14.933034398323295,-1.7083610841989516,-0.4658419787883758,-1.4397436380386353,0.4547064900398254,jumping
1761226677760629500,2.745707990172505,-15.161778856545686,-6.890392550942301,-0.0629816129803657,-2.60286021232605,0.6861777901649475,jumping
1761226677770642400,-1.244865328554809,-14.41541571508646,-13.835591043305396,0.6732159852981567,-2.621089458465576,0.5833108425140381,jumping
1761226677780655400,-5.933752920365333,-13.083512446808816,-19.22794809900522,1.4976885318756104,-1.4953045845031738,0.1948227137327194,jumping
1761226677790668500,-9.21443346415758,-11.080587401521203,-20.962615006327628,2.1110973358154297,0.133653774857521,-0.2521499991416931,jumping
1761226677800681500,-9.494500113338232,-9.026002311623095,-18.11553513839245,2.2401585578918457,1.6387853622436523,-0.5008948445320129,jumping
1761226677810694400,-7.11882078282237,-6.904612799474597,-11.398594197517632,1.7408629655838013,2.5193772315979004,-0.4985187947750091,jumping
1761226677820707300,-3.698526601156592,-4.843832946589589,-2.579166597884893,0.7700114846229553,2.753944158554077,-0.272513598203659,jumping
1761226677830720500,-0.6380237627714872,-3.081576021552085,4.810285774035751,-0.2097887992858886,2.742971897125244,-0.0218179039657115,jumping
1761226677840733200,0.944542511678487,-1.5579910745114087,8.547533150991796,-0.9940407276153564,2.303192138671875,0.2248027920722961,jumping
1761226677850746400,1.7924425122037528,-0.1849830579072237,10.312845956468582,-1.4264302253723145,1.4856209754943848,0.4691777527332306,jumping
1761226677860759600,2.1407029921665788,1.1163690047621726,9.60421954820752,-1.4613354206085205,0.6168986558914185,0.6383162140846252,jumping
1761226677870772500,1.505080153056979,2.452690089482069,7.350906368166208,-1.241543173789978,0.0076897335238754,0.6978604197502136,jumping
1761226677880785400,0.4560447089858352,3.52898310444355,5.21753941797614,-0.892826497554779,-0.2887547016143799,0.6588528156280518,jumping
1761226677890798300,-0.3424029861062765,4.472141906678677,4.076747919619083,-0.5034165978431702,-0.4864517152309418,0.5585503578186035,jumping
1761226677900811500,-0.6638355187676847,5.06358570458293,4.139146800386905,-0.1528966873884201,-0.6998588442802429,0.4034739732742309,jumping
1761226677910824200,-0.7156282498471438,5.327807134377956,5.064410464969277,0.0600788854062557,-1.0070385932922363,0.2278673499822616,jumping
1761226677920837400,-0.4397355253502726,5.648831816890835,6.485463842818141,0.089737981557846,-1.2795130014419556,0.066529594361782,jumping
1761226677930850600,-0.1218340894244611,6.185055247354507,7.449191970351338,0.0122021753340959,-1.4182292222976685,-0.0864538848400116,jumping
1761226677940863500,0.1132028930708766,6.740669022464751,7.660193266612291,-0.1176210716366767,-1.4758775234222412,-0.2078820616006851,jumping
1761226677950876400,0.4350258863545954,7.192742928123474,7.5217878354847425,-0.2611933052539825,-1.4693901538848877,-0.3000229597091675,jumping
1761226677960889300,0.5663087721258402,7.555815192770957,7.2097478389382355,-0.4000132381916046,-1.4176201820373535,-0.398831307888031,jumping
1761226677970903300,0.6123389941558242,7.730708818340301,6.759034700238704,-0.5084346532821655,-1.3233327865600586,-0.5011522769927979,jumping
1761226677980916500,0.8148359353132546,7.93145935422182,6.267934021571278,-0.6000468730926514,-1.2526311874389648,-0.5772883296012878,jumping
1761226677990929400,1.0712689031891525,8.162896704789995,5.7613014272511,-0.6462095379829407,-1.137045979499817,-0.6067262887954712,jumping
1761226678000942600,1.388488640461117,8.282946395015717,4.926070500293374,-0.6424766182899475,-1.0079008340835571,-0.6069360971450806,jumping
1761226678010955300,1.6053689117580652,8.484778880915044,4.201336130057275,-0.5981560945510864,-0.8454756736755371,-0.5547601580619812,jumping
1761226678020968400,1.9803009794168172,8.530733407360314,3.5632699894487856,-0.537816047668457,-0.6775000095367432,-0.4520739912986755,jumping
1761226678030981400,2.3169486168667675,8.52460878700018,3.230252379064262,-0.4604780077934265,-0.6278069615364075,-0.3216922879219055,jumping
1761226678040994300,2.4778987650185824,8.063691065150499,3.1161651043742893,-0.3342553675174713,-0.7313538789749146,-0.2472875416278839,jumping
1761226678051007500,2.372764173721522,7.418346165710687,2.7939123413711786,-0.1766805648803711,-0.9281257390975952,-0.1944245398044586,jumping
1761226678061020400,2.275776940783858,6.817405056142807,2.1285019745022056,-0.0536475889384746,-1.004223108291626,-0.1276803910732269,jumping
1761226678071033600,1.9848463677614927,6.071005674326419,1.128783665177226,0.0148861072957515,-0.9911711812019348,-0.0531379505991935,jumping
1761226678081046300,1.5138615715362131,5.134690454375743,0.1310746498480439,0.1042277067899704,-0.9181023240089417,-0.0070263827219605,jumping
1761226678091059500,0.8156075042076408,4.289581107482314,-1.1855910095483064,0.2962957918643951,-0.7707641124725342,0.0136505980044603,jumping
1761226678101072400,0.05044833073318,3.690285427033901,-2.779255747248232,0.6207630634307861,-0.4602589309215545,-0.0135882133617997,jumping
1761226678111085300,-0.6070606153614818,3.219246708664298,-4.331902830383181,1.0032685995101929,-0.1007997989654541,-0.0994234606623649,jumping
1761226678121098500,-1.1148108155347407,2.640165548726916,-4.807435937562585,1.25764262676239,0.2474284917116165,-0.2040835618972778,jumping
1761226678131111400,-1.4573358205854892,1.9050299037247893,-4.230291590906679,1.3097097873687744,0.6239342093467712,-0.3260528743267059,jumping
1761226678141124600,-1.9014922311179336,1.177866552776098,-3.164307496252656,1.149393916130066,0.8718257546424866,-0.4670627117156982,jumping
1761226678151137300,-2.355597496473789,0.1676104828238487,-1.840141544228792,0.8677725791931152,0.8274352550506592,-0.6357748508453369,jumping
1761226678161150500,-2.424567572325468,-1.556447936722636,-1.5535183130115269,0.6613245606422424,0.8160265684127808,-0.7969040870666504,jumping
1761226678171163400,-1.941365684083849,-3.1804093207478523,-3.322093919676542,0.5666210055351257,1.153376817703247,-0.8073391914367676,jumping
1761226678181176300,-0.2835464541204273,-4.451456846046447,-5.711476781374215,0.401628315448761,2.02074670791626,-0.6062771677970886,jumping
1761226678191189200,1.900472678811848,-6.150289054399728,-6.521264054995775,-0.1200441867113113,3.064753532409668,-0.1230483949184417,jumping
1761226678201202400,4.831446343225241,-8.84268455657959,-3.951838514402509,-1.0746612548828125,3.0106263160705566,0.5428630709648132,jumping
1761226678211215600,6.7430246456801886,-11.615496242254972,0.5952081188738346,-2.035878896713257,1.8601047992706297,1.1588572263717651,jumping
1761226678221228300,5.9538984672933815,-13.715011191725733,0.5135395972296595,-2.4339370727539062,0.5349499583244324,1.5502969026565552,jumping
1761226678231241500,2.6965160892412063,-14.559900173866748,-5.519015934932232,-2.033043622970581,-0.4169969856739044,1.6141425371170044,jumping
1761226678241254400,-1.7467453215204178,-14.346795183324812,-13.293093939399718,-1.0620999336242676,-0.620606005191803,1.368143081665039,jumping
1761226678251267300,-5.581119047623872,-13.32895552637577,-19.14083329465389,0.1635540574789047,0.2490641921758651,0.93051677942276,jumping
1761226678261280500,-7.759259205520153,-11.391001258170604,-21.658249831068517,1.1376534700393677,1.387434959411621,0.6263094544410706,jumping
1761226678271294700,-6.666161770752072,-9.66623089096248,-17.97507920447588,1.5658410787582395,2.1380858421325684,0.4758484065532684,jumping
1761226678281307400,-4.31408631092459,-8.255906996920704,-10.106600914824009,1.4601423740386963,2.284867525100708,0.4563442170619964,jumping
1761226678291320600,-1.5755410519883035,-6.730832688105106,-1.0267413408070802,0.7906304001808167,1.6117242574691772,0.6586801409721375,jumping
1761226678301333800,1.5096240800969305,-5.807543538466096,8.081583280193804,-0.2383308857679367,0.2296073138713836,0.987549126148224,jumping
1761226678311346400,2.9362086424574256,-5.426841509103775,12.986231637752056,-1.0192800760269165,-1.074339747428894,1.1773487329483032,jumping
1761226678321359600,1.5336702877253292,-4.479280087995529,10.446563522040844,-1.2415019273757937,-1.839075207710266,1.1844474077224731,jumping
1761226678331372500,-0.4641372684180736,-3.067173402190208,4.354115831235051,-1.0141271352767944,-2.104445695877075,1.057867407798767,jumping
1761226678341385700,-1.973641521527618,-1.7720505892992018,-0.5427136692658067,-0.5933168530464172,-1.6711333990097046,0.7358691096305847,jumping
1761226678351398400,-3.568861525845528,-0.8183809144437313,-3.19635010946244,-0.311868667602539,-0.7659532427787781,0.2805182933807373,jumping
1761226678361411600,-4.153073326669634,0.1476274329811334,-2.1767186006605623,-0.4018307626247406,0.1141082867980003,-0.1587719917297363,jumping
1761226678371424800,-3.110335667568445,1.281098379191756,1.61643800278306,-0.8372375965118408,0.7830337882041931,-0.520119845867157,jumping
1761226678381437400,-1.754667638952285,2.5984201644092795,5.58802517375052,-1.3931846618652344,1.2480922937393188,-0.7628070712089539,jumping
1761226678391450600,-0.8305204111792147,3.723388070690632,7.691622424098849,-1.821945071220398,1.6936465501785278,-0.9238627552986144,jumping
1761226678401463600,-0.1897759912721812,4.477201528155804,7.962856363004445,-2.0437052249908447,2.012587070465088,-1.0533140897750854,jumping
1761226678411476700,0.3287646291151642,5.222211501440405,8.40664291731119,-2.079887628555298,2.007918357849121,-1.1491624116897583,jumping
1761226678421489400,1.069834632602334,5.686200885820388,9.406763377696276,-1.969554781913757,1.6032371520996094,-1.2211880683898926,jumping
1761226678431502600,1.6699460133478043,6.084552553641796,10.174993483048675,-1.6975936889648438,0.8415923714637756,-1.3190041780471802,jumping
1761226678441515800,2.227396940757334,6.303540757003426,9.86176106184721,-1.25800621509552,-0.0019929697737097,-1.3878657817840576,jumping
1761226678451528400,2.8024390544369817,6.625197892200946,8.344940786635876,-0.7188287973403931,-0.6670433282852173,-1.3254363536834717,jumping
1761226678461541600,3.2714301926270126,7.3715885061889885,6.527603779411316,-0.1759873479604721,-1.073240041732788,-1.0986013412475586,jumping
1761226678471554600,3.7023940902397032,7.986032655930519,5.142523047697543,0.3174336552619934,-1.3612252473831177,-0.8218000531196594,jumping
1761226678481567700,3.845732009333372,8.350059444823861,4.55059643471241,0.7038673758506775,-1.5736587047576904,-0.4841679632663727,jumping
1761226678491580400,4.10463604349792,8.435752107417583,4.372644590616226,0.9672517776489258,-1.681135892868042,-0.1267255991697311,jumping
1761226678501593600,3.9401264492988575,8.025635767522454,4.015707467722892,1.1007386445999146,-1.5987396240234375,0.1754577010869979,jumping
1761226678511606500,3.2729619322389363,7.113242105907202,3.6194419585257767,1.0907284021377563,-1.4166315793991089,0.3948683440685272,jumping
1761226678521619500,2.412059826799482,6.167043205323815,3.3771295781999826,1.0039896965026855,-1.1529080867767334,0.4796016216278076,jumping
1761226678531633700,1.3509097281731663,5.287406734928489,2.828327821192145,0.928038477897644,-0.8707802295684814,0.4436082243919372,jumping
1761226678541646600,0.4311157271735369,4.621879463681578,1.79335232052505,0.9438635110855104,-0.5383124947547913,0.3455452919006347,jumping
1761226678551659500,-0.3341599122874438,4.122593724992871,0.3738789053440093,1.0536521673202517,-0.0659954249858856,0.1865340173244476,jumping
1761226678561672700,-1.193892973947525,3.893265913924575,-0.8754553853183984,1.1811542510986328,0.4850882291793823,-0.0070927045308053,jumping
1761226678571685600,-1.718683448509872,3.5318384938746687,-0.9548673602074385,1.1660137176513672,0.8328479528427124,-0.2045734673738479,jumping
1761226678581698600,-1.6540176457233726,2.99077872929573,0.2700596344292164,1.0108540058135986,0.8907991647720337,-0.3228098154067993,jumping
1761226678591711500,-1.0385951524689794,2.418495558935404,1.1041378842204808,0.8347704410552979,0.8987751603126526,-0.3701754212379455,jumping
1761226678601724700,-0.6197701670698821,1.93095228048861,0.4988222128301858,0.7014778852462769,0.759609043598175,-0.3308320045471191,jumping
1761226678611737600,-0.3623338673703372,1.2737415866881607,-0.4343178842157125,0.7149274349212646,0.2701957821846008,-0.2786101400852203,jumping
1761226678621750500,-0.5747616893030703,0.1214654022425413,-2.391541793297231,1.017122507095337,-0.2378312200307846,-0.3158701658248901,jumping
1761226678631763500,-1.367365480672568,-1.373392047485709,-6.203786835831403,1.5657373666763306,-0.3900130689144134,-0.4520690441131592,jumping
1761226678641776600,-2.5985271319150924,-2.6393139003336428,-10.438895763891937,2.2647688388824463,0.1909398287534713,-0.7300902605056763,jumping
1761226678651789600,-4.104947301404178,-3.996405970403552,-14.23820153761506,2.905134916305542,1.583828330039978,-1.026021122932434,jumping
1761226678661802500,-3.756045893189311,-4.923600895309448,-15.328490344703196,3.144216537475586,2.9743611812591557,-0.8945197463035583,jumping
1761226678671815700,0.4106749966911971,-5.671361628606915,-11.016837106144427,2.740539073944092,3.106537103652954,-0.1941517144441604,jumping
1761226678681828600,5.818021677860617,-7.854951284080744,-3.15741832126081,2.0084376335144043,2.067212581634521,0.6859170794487,jumping
1761226678691841500,8.323406415697931,-10.146706130719185,1.892175682848692,1.369381546974182,0.7215052843093872,1.4338884353637695,jumping
1761226678701854500,6.958763491857051,-11.91044832587838,1.9722125116378069,1.0163962841033936,-0.5216130018234253,1.882551908493042,jumping
1761226678711867600,3.686979955747723,-13.059327269101145,-0.8925842147737741,0.9383063912391664,-1.3736119270324707,1.9592317342758176,jumping
1761226678721880600,-0.6207189922273159,-13.224881403917074,-4.916754390415549,1.0144147872924805,-1.4647327661514282,1.6615265607833862,jumping
1761226678731893500,-4.996708217096328,-12.414953845041987,-8.679779474967718,1.1061822175979614,-0.6229226589202881,1.1737353801727295,jumping
1761226678741906700,-7.306454062977433,-10.880982528543472,-10.739977144050595,1.0755993127822876,0.7889702916145325,0.6765384674072266,jumping
1761226678751919600,-7.3419292809844015,-9.09983268698752,-9.45532078011632,0.779304027557373,2.073112726211548,0.3356170952320099,jumping
1761226678761932500,-5.994627368044853,-7.112766889610886,-4.9908834564656015,0.2997675538063049,2.826753854751587,0.1255714446306228,jumping
1761226678771946800,-4.456502438998222,-5.1449423837989565,0.0807531603649258,-0.2232682257890701,3.1723244190216064,0.0397155657410621,jumping
1761226678781959400,-2.861588578020036,-3.379302830585837,4.751628710144758,-0.7900861501693726,2.879293203353882,0.0610741153359413,jumping
1761226678791972600,-1.101730676948279,-2.109133257165551,9.43286578720212,-1.3788599967956543,2.0663599967956543,0.0774495154619216,jumping
1761226678801985500,0.1255361588127911,-0.9435779044300318,12.153297297298908,-1.9002161026000977,1.161525845527649,0.0680198073387146,jumping
1761226678811998700,0.4735848957210778,0.5008358907401561,12.28468145148754,-2.3107564449310303,0.4175211191177368,0.0607173442840576,jumping
1761226678822011400,0.5578562933400273,1.7601771961539985,10.9866021268785,-2.5509321689605717,-0.2392905950546264,0.0340974479913711,jumping
1761226678832024600,0.7029508468426764,2.913852141481638,8.983178484418987,-2.4559221267700195,-0.917508602142334,0.1176603361964225,jumping
1761226678842037800,1.301041389285028,4.005536786842346,5.948521450430154,-1.9447643756866453,-1.4149024486541748,0.3143017590045929,jumping
1761226678852050400,1.2944422832809388,4.57445018850863,2.172397814852,-1.193276286125183,-1.641486883163452,0.5284736156463623,jumping
1761226678862063600,0.3754524382710457,4.461064047825336,-0.352708107021451,-0.4116890132427215,-1.5284165143966677,0.6442487239837646,jumping
1761226678872076500,-0.8363874035164713,3.92330098670423,-1.2764806562632325,0.2203962057828903,-1.1640607118606567,0.6446194052696228,jumping
1761226678882089700,-1.7513827720627189,3.447021445071697,-0.4478913592770695,0.5504431128501892,-0.7403554320335388,0.5611684918403625,jumping
1761226678892102400,-1.930557435952127,3.2476217392772435,1.9594190810382368,0.5181088447570801,-0.4815608859062195,0.4038239121437073,jumping
1761226678902115600,-1.7082110082037747,3.2075293828636404,4.965394210422039,0.2580415904521942,-0.4026660621166229,0.1707203537225723,jumping
1761226678912128800,-1.4762819285959004,3.3355086970448493,6.874574804085492,-0.0648943036794662,-0.3455320298671722,-0.1282331049442291,jumping
1761226678922141400,-1.4373834581419824,3.637871349185705,7.197421441328525,-0.3660994172096252,-0.2019213140010833,-0.4973344206809997,jumping
1761226678932154600,-1.5927683733820914,4.011396034264564,6.801485017955303,-0.6373634338378906,-0.0180560927838087,-0.847549319267273,jumping
1761226678942167600,-1.3108461594626306,4.638692066794634,6.223668763387203,-0.7951128482818604,0.144948810338974,-1.109302043914795,jumping
1761226678952180700,-0.7571278427101671,5.382374006345867,5.302039071393013,-0.777534544467926,0.2916953861713409,-1.3167914152145386,jumping
1761226678962193400,-0.2552024031676352,6.129838387045264,4.510645532596112,-0.671058177947998,0.3384772837162018,-1.4653910398483276,jumping
1761226678972206600,0.4659942944616079,6.787535987579823,4.552409621614218,-0.55973219871521,0.2615042328834533,-1.5253418684005735,jumping
1761226678982219500,1.4340734568111595,7.371853294605017,4.953594467034936,-0.4839431345462799,0.1356493383646011,-1.4533648490905762,jumping
1761226678992232400,2.417488135458529,7.911888976833223,5.147886036035418,-0.4325421750545501,0.0244343373924493,-1.2897523641586304,jumping
1761226679002245600,2.8973583950594066,8.191695513772965,5.013056125307083,-0.3682278990745544,-0.1237676441669464,-1.080410361289978,jumping
1761226679012259600,3.01570595754236,8.104057562330365,4.726214282903075,-0.2633749842643738,-0.3530479669570923,-0.87701815366745,jumping
1761226679022272500,2.6557839736193416,7.600223658818006,4.180613367763161,-0.1080048456788063,-0.6626483798027039,-0.7111881375312805,jumping
1761226679032285700,2.210917807382345,6.737794928333163,3.1692221563011405,0.073024146258831,-0.9646415114402772,-0.5688083171844482,jumping
1761226679042298600,1.9762273002371191,5.915806929308176,1.6117191575676202,0.2470390945672989,-1.1053186655044556,-0.4029697775840759,jumping
1761226679052311600,1.8104332191854715,5.301762592539191,-0.4278369977638125,0.4414510130882263,-0.9985077381134032,-0.2063353806734085,jumping
1761226679062324500,1.3240513857334852,4.772101004809141,-2.665132816722989,0.7139842510223389,-0.7246505618095398,-0.0835109129548072,jumping
1761226679072337700,0.1146519959006458,3.95041754168868,-4.464738644684851,1.0409477949142456,-0.3641893863677978,-0.1250264346599578,jumping
1761226679082350600,-1.4928370498165486,2.7755162684589623,-5.355566663441062,1.320190668106079,-0.0963390618562698,-0.3022121489048004,jumping
1761226679092363500,-2.662759657850861,1.4703040232300757,-5.038873872652649,1.4672720432281494,-0.122194580733776,-0.4515171647071838,jumping
1761226679102376400,-2.8560692300766704,0.1206406418561935,-4.274280077975988,1.5380699634552002,-0.2323003262281417,-0.5917304754257202,jumping
1761226679112389600,-2.9375124185323718,-1.5123440065801144,-4.690113334213197,1.5817800760269165,-0.0376399978995323,-0.7347617745399475,jumping
1761226679122402600,-2.4935692123591897,-2.964387565976381,-5.784250925683975,1.4673662185668943,0.5420369505882263,-0.8067305088043213,jumping
1761226679132415500,-1.4091709246143698,-4.400334561574459,-6.096701256597042,1.1682119369506836,1.5282201766967771,-0.8303094506263733,jumping
1761226679142428700,0.3679864132393151,-5.852141389605403,-5.438864539852738,0.6797136068344116,2.345649003982544,-0.5651131868362427,jumping
1761226679152441600,4.240779959434271,-7.0432958784997455,-3.002899959722161,0.0738167017698288,2.1958818435668945,0.0893264412879943,jumping
1761226679162454500,8.162014076736568,-8.63766408829391,0.4775350946515798,-0.4431638419628143,0.9116734862327576,0.934922695159912,jumping
1761226679172467500,9.05783303564787,-9.620926937380432,1.9931176447615029,-0.6313847303390503,-0.8006927967071533,1.7512651681900024,jumping
1761226679182480600,7.206380992853641,-10.3971106320858,-0.2513528881326318,-0.436550498008728,-2.4389772415161133,2.293631792068481,jumping
1761226679192493600,3.3010055389404296,-10.843867726635931,-4.223179420813918,0.0202003493905067,-3.633009195327759,2.5275697708129883,jumping
1761226679202506500,-1.0480252441152929,-10.71899280821085,-8.263943588382006,0.5327882766723633,-3.8669941425323486,2.4382472038269043,jumping
1761226679212519700,-5.414482962790132,-9.977271939599513,-11.852941893327236,0.9371641874313354,-2.961362600326538,2.033587455749512,jumping
1761226679222533400,-8.41826613508761,-9.330115606823563,-13.901066847300529,1.147779107093811,-1.1878712177276611,1.4696670770645142,jumping
1761226679232546600,-9.28459479562044,-8.573355574512481,-13.51713182736635,1.0371146202087402,0.7323760986328125,0.951537549495697,jumping
1761226679242559700,-8.218661262109876,-7.481477452406287,-9.652690441387891,0.5324981808662415,2.1385324001312256,0.5501903891563416,jumping
1761226679252572400,-6.134255618965625,-6.410843193858861,-3.098080581629276,-0.2236067205667495,2.904844045639038,0.2527576386928558,jumping
1761226679262586000,-3.779282099609077,-5.368776858147979,3.111875882747769,-0.996204137802124,3.0131711959838867,0.0338785387575626,jumping
1761226679272599000,-1.3988856774434446,-3.79868208886683,7.877443686395883,-1.6483087539672852,2.560903787612915,-0.1193117946386337,jumping
1761226679282612000,0.507846646285057,-2.0091607248067853,10.936098266565798,-2.127304792404175,1.7315407991409302,-0.2859484553337097,jumping
1761226679292625200,1.4586526022724806,-0.4339543116003275,12.174008076894282,-2.461681842803955,0.8012381196022034,-0.5230093598365784,jumping
1761226679302638000,1.3177334347583354,0.8355296176433563,11.878063475102186,-2.6730716228485107,0.0249666422605514,-0.7690987586975098,jumping
1761226679312651300,0.9114958359926938,2.1886446007758376,10.221672232115267,-2.7456653118133545,-0.5291557908058167,-0.9262551069259644,jumping
1761226679322664000,0.7596154217422008,3.442859064695239,7.688197125825285,-2.635138273239136,-0.7034913897514343,-0.9902918934822084,jumping
1761226679332677000,0.8352502161800861,4.434974497801065,4.634113506832718,-2.374959707260132,-0.5771486759185791,-0.9563469886779784,jumping
1761226679342690000,0.9986886740162968,5.133744113436341,2.3742913832888006,-2.0161306858062744,-0.2915270328521728,-0.813143253326416,jumping
1761226679352703000,1.1519628807127476,5.284033459103108,1.2583061171472072,-1.5700862407684326,-0.0137581434100866,-0.6275803446769714,jumping
1761226679362716000,0.7930695091851055,5.197421928098797,1.0999591372311115,-1.0865381956100464,0.1935183405876159,-0.5169313549995422,jumping
1761226679372729000,0.0926342984251678,4.797152443957328,1.793793634551763,-0.6574104428291321,0.1227615401148796,-0.5171626806259155,jumping
1761226679382742300,-0.2334144958600401,4.441777748075127,3.3267256711304185,-0.3272141516208648,-0.1009114980697631,-0.5890816450119019,jumping
1761226679392755000,-0.254280466017127,4.32985291211605,4.369530842509866,-0.0955822691321373,-0.2400209158658981,-0.6921475529670715,jumping
1761226679402768100,-0.0999300083912909,4.636980002179741,4.682255898711085,0.0159591753035783,-0.2369417697191238,-0.7857600450515747,jumping
1761226679412781000,0.1689472843855619,5.105109555104375,4.930621003204584,0.0151913855224847,-0.1148803085088729,-0.8440566658973694,jumping
1761226679422794000,0.3969719769660383,5.56741551644206,5.134368967336416,-0.0610671676695346,0.0977392792701721,-0.8681681156158447,jumping
1761226679432808200,0.6825850082274526,6.013354864868521,5.265252186265587,-0.1573111414909362,0.3617998361587524,-0.8449230790138245,jumping
1761226679442821000,1.1593180657811462,6.463304617980122,5.419868747481703,-0.2524017095565796,0.52275151014328,-0.7583263516426086,jumping
1761226679452834000,1.6575582409396767,6.746643420699239,5.854082586801051,-0.3508683443069458,0.5141987204551697,-0.6158013939857483,jumping
1761226679462847000,1.9752830051243304,6.475014344996214,6.233124573996663,-0.4354910850524902,0.3429082334041595,-0.4891811311244964,jumping
1761226679472860200,1.909668961702287,5.867455278593302,6.119274907454848,-0.4875980615615845,0.0457511991262435,-0.3756324350833893,jumping
1761226679482873000,1.9573150944963096,5.11093723834455,5.221175728651881,-0.4775435626506805,-0.2190490365028381,-0.2402040362358093,jumping
1761226679492886000,1.9652642999351024,4.548561714014411,3.5203438709139823,-0.3936464488506317,-0.3553240299224853,-0.0680543482303619,jumping
1761226679502899200,1.619009899097681,4.178195200705528,1.634979621645808,-0.2321433126926422,-0.4036771655082702,0.1220242381095886,jumping
1761226679512912100,1.1230771971639244,3.7263054194420575,-0.2643389186948537,0.0402313061058521,-0.3106972873210907,0.2582005560398102,jumping
1761226679522925000,0.255829302894324,3.055935968860984,-2.062644477713108,0.3799534440040588,-0.086341954767704,0.3105995655059814,jumping
1761226679532938000,-0.6943725497201084,2.3151234472662208,-3.0788959886878726,0.669672966003418,0.1317874938249588,0.2936180531978607,jumping
1761226679542951200,-1.3745532002195715,1.5518740529358386,-3.189984373822808,0.8840023279190063,0.221465453505516,0.2493720203638076,jumping
1761226679552964000,-1.784263881923258,0.9159890557587146,-3.1733518034517765,1.0691319704055786,0.23075832426548,0.2127424031496048,jumping
1761226679562977000,-1.9577397496491669,0.3424760513424873,-3.654283554804325,1.233068346977234,0.2979743778705597,0.1771764159202575,jumping
1761226679572990200,-2.092101019952446,-0.0300485167831182,-4.075948878195882,1.328589916229248,0.3756097257137298,0.1329316943883896,jumping
1761226679583003100,-2.4071499890565877,-0.6322451793700457,-4.277498455500602,1.4320149421691897,0.6067918539047241,-0.0392563119530677,jumping
1761226679593016000,-2.6755945895046,-1.7885545648545025,-4.770923193201423,1.4941657781600952,0.946677565574646,-0.2768596410751343,jumping
1761226679603029000,-1.9136425415083764,-2.908078234255313,-4.53164740409255,1.3979183435440063,1.17249596118927,-0.364145815372467,jumping
1761226679613042200,0.4044874671626836,-4.536499520298839,-3.756994572216272,1.113229513168335,1.257839918136597,-0.1850342601537704,jumping
1761226679623055000,3.432717902170121,-6.804646696856618,-2.6479963884830475,0.6157984137535095,0.7321329712867737,0.2810791134834289,jumping
1761226679633069000,5.9831157939493655,-8.92787628391385,-0.7615665558099747,0.0636750310659408,-0.5653958320617676,0.8476842045783997,jumping
1761226679643082200,6.104016548046469,-10.53972695890665,-0.4079778665617108,-0.2550464868545532,-2.064281702041626,1.2004536390304563,jumping
1761226679653095000,3.216348356874287,-11.056806712961196,-3.449836502492428,-0.2499726414680481,-3.1908514499664307,1.2897650003433228,jumping
1761226679663108000,0.1325854928024113,-10.853617551755905,-7.776488572740554,-0.0827165395021438,-3.687292098999024,1.2528754472732544,jumping
1761226679673121000,-2.4843027868419885,-9.66451707278192,-11.456069065886735,0.2176994830369949,-3.1969995498657227,1.1150908470153809,jumping
1761226679683134000,-4.866531100609898,-8.119262145724893,-15.024867463368176,0.5882711410522461,-1.830020785331726,0.896979808807373,jumping
1761226679693147100,-6.091015612176061,-6.880102043074369,-17.051644508886337,0.9638081789016724,-0.1225812584161758,0.6614643335342407,jumping
1761226679703160000,-6.143670513042808,-6.328828927516937,-16.251405984854696,1.2008333206176758,1.419337272644043,0.4369015097618103,jumping
1761226679713173200,-4.9135827746421095,-6.189913208779692,-12.451885107076167,1.204197883605957,2.298785924911499,0.2433404922485351,jumping
1761226679723186000,-3.4483632150694725,-5.491628161790967,-6.627190527322888,0.9841885566711426,2.590777635574341,0.1069696098566055,jumping
1761226679733199000,-1.9593647205024955,-4.23231374438405,-1.010645069269836,0.64014732837677,2.4238672256469727,0.0696278885006904,jumping
1761226679743212000,-0.3165200645700097,-2.5992408331423995,3.699685708063841,0.2153701931238174,1.9132447242736816,0.1537997424602508,jumping
1761226679753225200,1.2106748896613715,-1.1525094086796044,7.1198986411869525,-0.1849982589483261,1.3008770942687988,0.2571266293525696,jumping
1761226679763238000,1.6800623336926102,0.0333569106787443,8.749234703987836,-0.4405573308467865,0.7166433334350586,0.2900984287261963,jumping
1761226679773251000,1.4801656381614503,1.0521762263149022,9.280425985503197,-0.6169639825820923,0.1658610701560974,0.2718349993228912,jumping
1761226679783264300,1.224037790711969,1.8544079699903728,9.78514310159087,-0.819927453994751,-0.3232771754264831,0.2390626817941665,jumping
1761226679793277000,1.0365998869985342,2.622567348194122,10.16156117002368,-1.059046983718872,-0.7646076083183289,0.208642765879631,jumping
1761226679803290000,0.857231454102695,3.2429052321493623,9.98047044337988,-1.282606601715088,-1.0941444635391235,0.1909402161836624,jumping
1761226679813303000,0.5808616136133671,3.63127852679193,8.975523001229762,-1.4424737691879272,-1.2666168212890625,0.1591566205024719,jumping
1761226679823316200,0.2996756050139665,3.951822147789597,7.320026076734066,-1.4971766471862793,-1.2857271432876587,0.1414468735456466,jumping
1761226679833330200,0.2608766494117677,4.099403988063335,5.414068536770343,-1.452523112297058,-1.1268031597137451,0.1704906076192855,jumping
1761226679843343000,0.2120927447594702,4.196626344931126,3.5403286743223665,-1.337013840675354,-0.7959820628166199,0.2079948335886001,jumping
1761226679853356000,-0.1422742353849113,4.117834547767043,2.1147928903624416,-1.177251219749451,-0.3703040778636932,0.1698721647262573,jumping
1761226679863369000,-0.8716203372001647,3.859417420336604,1.4113316097795965,-1.0184961557388306,0.0492455139756202,0.0715634375810623,jumping
1761226679873382100,-1.204992021719366,3.756803433558345,1.3424679169118403,-0.8862738013267517,0.4134822785854339,-0.0471296794712543,jumping
1761226679883395000,-1.0308211574666202,3.8601363822609183,1.630901412421465,-0.7301465272903442,0.7093073129653931,-0.1766900718212127,jumping
1761226679893408000,-0.7298198568068445,4.11047366361022,2.0250135429769758,-0.5019938945770264,0.9120608568191528,-0.3189597129821777,jumping
1761226679903421200,-0.4179848813131451,4.320788146650791,2.6284417931854724,-0.2896635234355926,0.930124044418335,-0.4346016347408294,jumping
1761226679913434000,0.0769774412184953,4.256566142109036,3.9998751078188417,-0.211706206202507,0.7592529654502869,-0.5159246325492859,jumping
1761226679923447000,0.6210156370863318,3.9179572875887154,5.58796789060533,-0.3062185943126678,0.4561343491077423,-0.577625572681427,jumping
1761226679933460000,1.091007038360089,3.6079917592287054,6.776102739417553,-0.4991882443428039,0.0716485902667045,-0.5799456238746643,jumping
1761226679943473200,1.77124248778671,3.1680209638178347,6.768340288722515,-0.6955337524414062,-0.0688011944293975,-0.5902999639511108,jumping
1761226679953486000,1.7404289779804647,2.7490122924149034,5.450837301719188,-0.8585290908813477,0.0501455441117286,-0.5561290979385376,jumping
1761226679963499000,1.9344583889134228,2.3449451695561407,3.722923375788331,-0.988802969455719,0.416047602891922,-0.4204548299312591,jumping
1761226679973512200,2.3781604798071085,1.6061778900533914,2.036930190742016,-1.0963596105575562,0.9498986601829528,-0.2601945102214813,jumping
1761226679983525000,2.0705285089612007,0.7817758156239986,1.015702644920349,-1.1570674180984497,1.398856282234192,-0.1224443614482879,jumping
1761226679993538000,1.5857665317960083,-0.1858791299641132,0.7313888596892356,-1.1285245418548584,1.512161135673523,-0.053096730262041,jumping
1761226680003551000,1.0134179680492728,-1.5572978315502404,0.4869172555029392,-0.9987417459487916,1.3284538984298706,-0.1149270758032798,jumping
1761226680013564200,0.2253627068296074,-2.786484821718931,-0.1741734946012496,-0.7241055369377136,0.9018471240997314,-0.2697205543518066,jumping
1761226680023578000,0.0340920930854976,-3.417482631376385,-1.5298428383916616,-0.3321199715137481,0.654200553894043,-0.4000061452388763,jumping
1761226680033591000,0.1542711818445473,-3.3422868128776546,-3.278432472604513,0.1954845488071441,0.8306679129600525,-0.5329796671867371,jumping
1761226680043604200,-0.1784670270767062,-3.0335306603074077,-4.948019881772995,0.7247968912124634,1.236777663230896,-0.684282660484314,jumping
1761226680053617000,-0.4263296984734013,-2.776616923177242,-5.202599038475752,1.1802438497543335,1.4040428400039673,-0.8295289874076843,jumping
1761226680063630000,-0.3606490926211699,-2.6683529478132724,-4.1541017929345365,1.494979739189148,1.265933632850647,-0.8837344646453857,jumping
1761226680073643000,0.3123972855515778,-2.675065597194433,-2.7073832279533145,1.69358491897583,0.9121555685997008,-0.8334503173828125,jumping
1761226680083656200,1.2663397859990595,-2.7141332867354158,-1.912318307167292,1.8427062034606931,0.589378833770752,-0.7221735715866089,jumping
1761226680093669000,1.8480511483095583,-2.9936826340436933,-1.9034487720131876,1.9119881391525269,0.3159174025058746,-0.6474094986915588,jumping
1761226680103682000,1.8471309647247196,-3.5584587897747757,-2.1174171013861893,1.903969168663025,0.0949605256319046,-0.5996142625808716,jumping
1761226680113695200,1.7474496703974902,-3.79829045920074,-2.345269579204917,1.7928321361541748,-0.2502371668815613,-0.5445568561553955,jumping
1761226680123708000,1.4332904897399246,-3.688371117845177,-2.139934053620696,1.577999234199524,-0.7175137996673584,-0.5376158356666565,jumping
1761226680133721000,0.9326387233950196,-3.686219492769241,-2.3754092814028263,1.2586381435394287,-0.9709168672561646,-0.621330738067627,jumping
1761226680143734000,-0.0414319892532192,-3.0998072592914103,-3.116868284207582,0.8302700519561768,-0.9685136675834656,-0.7116992473602295,jumping
1761226680153747200,-0.569936972560361,-1.738888324409723,-3.854812556889653,0.3256423473358154,-0.5816050171852112,-0.7014268636703491,jumping
1761226680163760000,-0.5171181133035571,-0.3627513621300459,-4.521034240141511,-0.2383312582969665,-0.0179027915000915,-0.5653544664382935,jumping
1761226680173773000,-0.1309981322794221,0.8518734342008829,-4.533801951777935,-0.7634634971618652,0.5223413705825806,-0.3187870681285858,jumping
1761226680183786200,0.6204367412198335,1.6819968088865278,-4.609100061607361,-1.1370503902435305,0.8426048755645752,0.0034522402565926,jumping
1761226680193799000,1.7132020944893358,2.0639695888370277,-4.736152908593416,-1.2857309579849243,0.8533151745796204,0.3810726106166839,jumping
1761226680203812000,2.535658880069852,1.7398983782351016,-4.985694655650854,-1.193868637084961,1.306265115737915,0.7160807251930237,jumping
1761226680213825000,-1.8464460512004792,-0.8206792545139789,-9.710718851986528,-0.7584982514381409,4.059291362762451,-0.1199355348944664,jumping
1761226680223838200,-19.443837751829623,-9.488705747845769,-19.47736125124693,-0.6479834318161011,3.672898054122925,-0.7067010402679443,jumping
1761226680233852200,-10.58900098516345,-7.920296155172586,-3.792755621427297,-0.3208509683609009,1.9278215169906616,-0.8351631760597229,jumping
1761226680243865000,-2.321785535503924,-5.700567264825105,2.7492174595981838,0.3015601336956024,0.8585503697395325,-0.9174178242683412,jumping
1761226680253878000,0.2585251178495585,-1.8921739292830229,0.5542027392685414,0.4195071756839752,0.2000760436058044,-0.6704268455505371,jumping
1761226680263890700,2.001614985602349,-0.1285392861515283,2.850585830229521,-0.0391589365899562,-0.6176278591156006,-0.3137435019016266,jumping
1761226680273903600,3.772019122868776,0.083542791083455,4.578586849921941,-0.5214773416519165,-0.8880730271339417,-0.0176723264157772,jumping
1761226680283916800,4.4205876605302095,1.1428969462037086,2.890019430473447,-0.929119110107422,-1.055372714996338,0.2449790090322494,jumping
1761226680293929500,4.137626751212776,1.2879033830314874,3.767708858454227,-1.3801411390304563,-1.2389358282089231,0.3174707591533661,jumping
1761226680303942700,3.5443943163260814,1.2448363947212695,5.01837644354701,-1.8903889656066892,-1.027985453605652,0.2754604518413543,jumping
1761226680313955600,2.1918290760308503,1.9957085380375383,5.529046915081143,-2.485773801803589,-1.0911022424697876,0.2338487356901168,jumping
1761226680323968800,1.8181464239113032,1.658044270890951,6.357392174178361,-3.075761079788208,-1.177657127380371,0.2540328502655029,jumping
1761226680333981700,1.782614507281035,2.729422041282058,6.295035378986596,-3.6201984882354736,-1.050280213356018,0.3001910150051117,jumping
1761226680343994600,0.6373468864232301,3.443752798664569,5.275565490487217,-4.080584526062012,-0.6628720760345459,0.2723029255867004,jumping
1761226680354007800,-1.4632140649691223,2.958010432159901,3.4754935063183305,-4.432764530181885,-0.1284334063529968,0.096429094672203,jumping
1761226680364020500,-3.6284029713556167,2.4821844795137644,1.7658710238814352,-4.725624084472656,0.3233346045017242,-0.2817411124706268,jumping
1761226680374033700,-4.868851360251009,2.182516473284364,1.1260983716160058,-4.857507705688477,0.5515978932380676,-0.6238052248954773,jumping
1761226680384046600,-3.2025352278381582,2.1252555399268864,0.9484481408149004,-4.750829696655273,0.7026656866073608,-0.7843320369720459,jumping
1761226680394059800,-1.5208724732115864,2.4280583370506763,0.0570844077467918,-4.375764846801758,0.6742679476737976,-0.8227619528770447,jumping
1761226680404072700,-0.5866532026268542,2.514412093901634,-0.3428933999717235,-3.637387275695801,0.2716030180454254,-0.693177342414856,jumping
1761226680414085600,-0.0256829419847577,3.1193174309253693,0.0944756885081529,-2.626164674758911,-0.2432188391685485,-0.4555065035820007,jumping
1761226680424099600,0.7206441052477807,3.5670430782467126,0.6037304480254649,-1.5498050451278689,-0.7283075451850891,-0.236432209610939,jumping
1761226680434112500,1.311731710125506,3.712392044901848,0.8434516428142785,-0.6193138360977173,-1.2235395908355713,-0.1045693829655647,jumping
1761226680444125700,0.8673099997203797,3.442914886535704,1.3087456800520418,-0.0138601437211036,-1.6244937181472778,-0.1165866330265998,jumping
1761226680454139000,0.009765351482667,2.8068633006200194,1.9147423194438216,0.3830061554908752,-1.7311686277389526,-0.1476438045501709,jumping
1761226680464151600,0.1631674954077228,2.9596541077136997,1.4751438644766808,0.6451160907745361,-1.5048832893371582,-0.1460118293762207,jumping
1761226680474164700,0.6435187069259584,3.4433038858532905,0.8395558044195175,0.8910990953445435,-1.054701805114746,-0.0945879518985748,jumping
1761226680484177700,0.251576175494492,3.799977389374375,0.5051011469691992,1.2395689487457275,-0.6407259702682495,-0.0725239291787147,jumping
1761226680494190600,-0.688612013432011,3.8367847327679394,0.624411417004466,1.6335978507995603,-0.406485766172409,-0.1585866808891296,jumping
1761226680504203500,-1.4957202040374278,3.4284652131617066,1.377566118299961,1.966135025024414,-0.2743999063968658,-0.2775650024414062,jumping
1761226680514216700,-1.4825611549958586,3.388779683983326,2.2935791394561527,2.1495721340179443,-0.1314269453287124,-0.3249529600143432,jumping
1761226680524230000,-1.0704152089692651,3.772201493698358,3.2903239859282967,2.2102718353271484,-0.0298800785094499,-0.328781247138977,jumping
1761226680534242600,-0.94701737735942,3.880613353100419,4.238890200164914,2.17207932472229,0.0361894592642784,-0.3192688524723053,jumping
1761226680544255700,-0.9652118632849306,3.711499479976296,4.702248300904035,2.016663789749145,0.0170791484415531,-0.3542263209819793,jumping
1761226680554268700,-0.8181876568939537,3.769033385056257,4.789780453884601,1.807736158370972,-0.097432292997837,-0.3710813224315643,jumping
1761226680564281600,-0.2464741761803627,3.9914246748596423,4.132470975884795,1.5710455179214478,-0.2219853997230529,-0.3145554661750793,jumping
1761226680574294500,0.4528664808085188,3.489549504199624,3.173658092921972,1.3354504108428955,-0.2151069045066833,-0.1615328639745712,jumping
1761226680584307700,0.6646515113256871,2.0705174030452964,2.3940116905421016,1.1364229917526243,-0.1374520659446716,-0.0106021966785192,jumping
1761226680594321000,-0.0776878727764822,-0.0075093527168035,1.890430300486088,1.0387922525405884,-0.0046233097091317,0.0867335945367813,jumping
1761226680604333600,-0.3205374469852075,-1.2865811945170162,0.9743570735752582,1.101729154586792,0.1196706742048263,0.1249182671308517,jumping
1761226680614347800,-0.2662760790362022,-1.7851041321396828,-0.2444739422738552,1.3199880123138428,0.2444875836372375,0.0899880602955818,jumping
1761226680624360400,-0.1394037031835876,-2.1966145567417144,-1.7915245205760002,1.6145871877670288,0.3106399774551391,0.0215978175401687,jumping
1761226680634373600,0.0351785183490254,-2.6270032848149536,-2.604695591416955,1.7963862419128418,0.3181581497192383,-0.0751501470804214,jumping
1761226680644386800,0.1270986771554686,-2.6132529918819665,-2.6067478477716444,1.7065351009368896,0.4813454747200012,-0.1566359400749206,jumping
1761226680654399700,0.4989171245720237,-2.145121100869775,-1.983771432006359,1.3177409172058103,0.8884725570678711,-0.1427081376314163,jumping
1761226680664412700,0.8478639062985778,-1.832303105688095,-0.8755909943968058,0.7511798143386841,1.3203669786453247,-0.0810200050473213,jumping
1761226680674425600,0.9064682170890273,-2.1183429840594528,0.2131745486468076,0.1724932193756103,1.4649044275283811,-0.0593916960060596,jumping
1761226680684438800,0.8593043148539959,-2.461093760690093,0.6369745459794998,-0.2812146246433258,1.2352302074432373,-0.1041288077831268,jumping
1761226680694451500,0.8571768743712455,-2.663528888657689,0.374485639065504,-0.5789059400558472,0.7179316282272339,-0.1670379936695099,jumping
1761226680704464600,0.5922411588270217,-3.0785885301738976,-0.4229904345154762,-0.7319930195808411,0.1598741710186004,-0.2526237666606903,jumping
1761226680714477600,0.2179797569714486,-3.515753620514273,-1.5886615225851537,-0.813848078250885,-0.249400332570076,-0.3732404112815857,jumping
1761226680724490800,-0.2002731276281177,-3.9076246941447255,-2.748479208451509,-0.811160683631897,-0.4090235531330108,-0.4748533368110657,jumping
1761226680734503700,-0.4858308485057204,-4.1581805866807695,-3.767807642653585,-0.7240166664123535,-0.3753441572189331,-0.557094931602478,jumping
1761226680744516600,-0.7439741274308412,-4.3116473933398725,-4.4409471424698825,-0.5225464105606079,-0.2234558314085006,-0.6250974535942078,jumping
1761226680754529800,-0.9566012713279576,-4.23209045702219,-5.169944723108411,-0.2409041374921798,-0.0007698629051446,-0.6865752935409546,jumping
1761226680764542500,-1.164475375479087,-3.93212200654149,-5.675533945855498,0.0757651552557945,0.2578071057796478,-0.7547959089279175,jumping
1761226680774555600,-1.2333091846652329,-3.588970832416415,-5.616958422768116,0.4237962961196899,0.5364317297935486,-0.8015550971031189,jumping
1761226680784568600,-0.906313976375386,-3.171635062661766,-5.195298360073566,0.7166518568992615,0.7337895631790161,-0.8332709074020386,jumping
1761226680794581800,-0.2626128986198455,-2.56649065618515,-4.039978570148349,0.8364071846008301,0.7849286198616028,-0.8112683296203613,jumping
1761226680804595700,0.2932524400986731,-2.2377339181154965,-2.2710107492953537,0.7087222337722778,0.6765931248664856,-0.7592921853065491,jumping
1761226680814608600,0.6982623967655003,-2.197007939973473,-0.497995698878169,0.4434764087200165,0.4218986928462982,-0.6659091114997864,jumping
1761226680824621600,1.2471670296259223,-1.4900217001348732,0.7322551211297511,0.1875937730073928,0.1693809628486633,-0.5726348161697388,jumping
1761226680834634500,1.3657932629197835,-1.3795920711696148,0.8842986169874668,0.0970288068056106,0.1364088803529739,-0.4712280631065368,jumping
1761226680844647700,1.3001312887027858,-1.4816115991860628,0.2455833648204803,0.1209445297718048,0.1670600026845932,-0.4136694073677063,jumping
1761226680854660900,1.107368975096196,-0.9503741404414175,0.3386053473889827,0.1562419831752777,0.162677377462387,-0.3257729411125183,jumping
