timestamp,acc_x,acc_y,acc_z,gyr_x,gyr_y,gyr_z,activity
1761226626345198300,0.0162229666568338,0.2365630230188369,-0.8110539325565099,0.4357160627841949,-0.3989170491695404,0.2184594571590423,jumping
1761226626355212500,-0.1049043627377599,0.0574672695845365,-0.4412070592075586,0.4514007568359375,-0.3866691589355469,0.1920163929462433,jumping
1761226626365225500,-0.2180341905724257,-0.1646919650286436,-0.0337239904254674,0.4328091442584991,-0.4187456667423248,0.1318579316139221,jumping
1761226626375238400,-0.2569664902307093,-0.3227911076635122,0.2371203646406531,0.3912800848484039,-0.4402349889278412,0.0636213570833206,jumping
1761226626385251600,-0.1865576868128031,-0.2887222493231296,0.2120493440091609,0.3507325053215027,-0.4101333618164062,0.0085590351372957,jumping
1761226626395264500,-0.1692038894951343,-0.1688859095871448,0.1994806620761752,0.2764244675636291,-0.3598480820655823,-0.0300131235271692,jumping
1761226626405277400,-0.1513437500905245,-0.1145014084488153,0.430385513202846,0.1671743541955948,-0.2911582589149475,-0.0504863783717155,jumping
1761226626415290400,-0.0579053687408566,-0.0916635536968707,0.6641720572456717,0.0497606508433818,-0.2159628421068191,-0.0495257750153541,jumping
1761226626425303600,0.1041794094640761,-0.0740682757735252,0.8811191101685166,-0.0710886567831039,-0.1538576930761337,-0.0340646356344223,jumping
1761226626435316500,0.1955778824839741,-0.1361906776875257,0.9260340644329784,-0.1586930751800537,-0.1007401347160339,-0.0134656140580773,jumping
1761226626445329400,0.2439926615629345,-0.1244938101530075,0.8031897750526666,-0.204727828502655,-0.089185856282711,-0.0026543166022747,jumping
1761226626455343400,0.2538287036616355,-0.0083960724234581,0.6752022775650024,-0.2236416041851043,-0.122334748506546,0.0053258454427123,jumping
1761226626465356300,0.2615438811488449,0.0960889689236879,0.6179740774333476,-0.2421178966760635,-0.1711566001176834,0.0076966015622019,jumping
1761226626475369500,0.2579845081668347,0.1081073234975338,0.6080319446116685,-0.2792663276195526,-0.1854979991912841,0.0031375363469123,jumping
1761226626485382700,0.2694775236923247,0.0238017313480377,0.6318985578894615,-0.3407475650310516,-0.1528578847646713,0.0041946358978748,jumping
1761226626495395300,0.313187193820253,0.0218278009265661,0.7492281755015253,-0.4051790237426758,-0.1136106178164482,0.0256432015448808,jumping
1761226626505408500,0.3619156419582665,0.06781155346632,0.9042141545519232,-0.4702908098697662,-0.1157516837120056,0.0628341436386108,jumping
1761226626515421400,0.4770427810899913,0.1312549748510122,1.0817489422798157,-0.5122473239898682,-0.1966875493526458,0.1071869656443595,jumping
1761226626525434400,0.573232506974414,0.2034229699611663,1.2278142405107615,-0.564100444316864,-0.2853099107742309,0.1786271780729293,jumping
1761226626535447300,0.6710344172958285,0.1850689826250076,1.0808096156030893,-0.5951747298240662,-0.3118046224117279,0.221181035041809,jumping
1761226626545460500,0.4770261222161352,0.0060690907806158,0.6045224751859903,-0.6110662221908569,-0.2622370719909668,0.2252877205610275,jumping
1761226626555474400,0.2601991885416209,0.0175654673069715,0.230690039332211,-0.6072845458984375,-0.1891844123601913,0.2048418372869491,jumping
1761226626565487400,0.0685850220568478,0.0763882431536912,-0.0429074138343334,-0.586405873298645,-0.1132329255342483,0.1719898879528045,jumping
1761226626575500500,-0.0383735697969794,0.1368015030622482,-0.0688154698118567,-0.562199592590332,-0.0616142079234123,0.1371413618326187,jumping
1761226626585513500,-0.0303503492739051,0.121564770963788,0.0370610258936882,-0.5488347411155701,-0.0360554158687591,0.1069431826472282,jumping
1761226626595526400,0.1221045769289135,0.0401677597373724,0.2105854089364409,-0.55257648229599,-0.0529553033411502,0.096084140241146,jumping
1761226626605539600,0.2868064422970637,-0.0096995562374591,0.2072749692142009,-0.5259028077125549,-0.0741812735795974,0.0957471281290054,jumping
1761226626615552500,0.3141408412832767,0.0163163440287113,-0.0112111298441886,-0.4984754025936126,-0.0744028463959693,0.1109463199973106,jumping
1761226626625565400,0.2991748524175956,0.1828974838048219,-0.0934048444062471,-0.4839209318161011,-0.0650922209024429,0.1326462626457214,jumping
1761226626635578400,0.2558664200343191,0.2826508204549551,-0.0653980625838041,-0.4947269856929779,-0.0385687313973903,0.1515355408191681,jumping
1761226626645591600,0.2401211173592135,0.2355506311058998,-0.0200146140247583,-0.5154263973236084,-0.0109806889668107,0.1631155461072921,jumping
1761226626655605500,0.2555390512434765,0.131660048520565,-0.1382762517899274,-0.5165407061576843,0.0423938520252704,0.1531736999750137,jumping
1761226626665618400,0.1806750585149973,0.1055605616241693,-0.2271077969312667,-0.5101061463356018,0.0958169400691986,0.1404521018266677,jumping
1761226626675631600,0.1675681049868464,0.1698421873986721,-0.1845019963920116,-0.4867883324623108,0.1288928687572479,0.1172809973359108,jumping
1761226626685644300,0.1071424605207517,0.2236561951726675,-0.1036374846071004,-0.4627283811569214,0.143674224615097,0.1114666163921356,jumping
1761226626695657500,0.1501142448281869,0.3119154933840036,-0.0522632712006568,-0.4219330251216888,0.155295729637146,0.1226657480001449,jumping
1761226626705670400,0.1939591587083414,0.4136532818496227,-0.0281914907395839,-0.3611058592796325,0.1904211938381195,0.1584278792142868,jumping
1761226626715683600,0.1547342327790334,0.4825029461920261,-0.1072223573565483,-0.291810393333435,0.2308346629142761,0.1820144355297088,jumping
1761226626725696500,0.0381544836862012,0.6159943017929792,-0.0065174190700054,-0.2237735390663147,0.2273135930299759,0.1760997623205185,jumping
1761226626735709400,-0.0629261925775557,0.6290338161081075,0.2436918519854545,-0.1684112101793289,0.1816832572221756,0.1366732567548751,jumping
1761226626745722600,-0.0580380186771973,0.5951672023415565,0.3169967421710491,-0.092325672507286,0.1372604221105575,0.08737363666296,jumping
1761226626755736300,-0.0281750875940546,0.631151538914442,0.1579039123237132,0.0035404027439653,0.1325205266475677,0.0508174933493137,jumping
1761226626765749500,0.0149666464528068,0.9079431119471788,0.1166273145616054,0.1005547419190406,0.1950473636388778,0.0234634056687355,jumping
1761226626775762400,-0.0120055681575089,1.2168962483942507,0.1950900259017944,0.1829113960266113,0.2707250714302063,0.0071845669299364,jumping
1761226626785775400,-0.0668969228394329,1.476452608987689,0.4386953686475753,0.2436222583055496,0.3546445965766907,-0.0026742902118712,jumping
1761226626795788500,-0.0876234845258295,1.67020583332777,0.6629968759864568,0.2993268072605133,0.4272657930850982,-0.014716038480401,jumping
1761226626805801500,-0.0867486379200592,1.884716014492512,1.0294932698637247,0.3180254697799682,0.4556213617324829,-0.0250481385737657,jumping
1761226626815814400,-0.0140850047800689,2.1553525720268487,1.5195014771193265,0.2951782345771789,0.405513197183609,-0.024826031178236,jumping
1761226626825827300,0.0883999487910419,2.34351133736074,1.8789052823871373,0.2884118258953094,0.315477967262268,-0.0021581996697932,jumping
1761226626835840500,0.1373094525843858,2.504562900060415,1.7244360206872225,0.299309492111206,0.2516821920871734,0.043449230492115,jumping
1761226626845853400,0.0916925605956465,2.8764269584506748,1.7463257809340953,0.3038171529769897,0.1604767441749572,0.0815189182758331,jumping
1761226626855867400,0.0438709981694817,3.2906004647821185,2.0848013644635675,0.2957677543163299,-0.0117083266377449,0.1304254680871963,jumping
1761226626865880600,0.0635889673352241,3.651023091703653,2.399897241449356,0.2699702382087707,-0.2101319432258606,0.1979994624853134,jumping
1761226626875893200,0.0204729522515088,3.930502296385169,2.724502705058456,0.2018575072288513,-0.379998117685318,0.2669498920440674,jumping
1761226626885906400,-0.1251923868764191,3.99612949154973,2.838814728415012,0.0862079486250877,-0.4855832755565643,0.3142660856246948,jumping
1761226626895919600,-0.5225466046256945,3.919785672059655,2.638528302913904,-0.0566610507667064,-0.4622752964496612,0.2937192916870117,jumping
1761226626905932500,-1.131372074235231,3.9209932942837473,2.022043002733588,-0.1678924262523651,-0.3222876489162445,0.229856789112091,jumping
1761226626915945500,-1.57931530983001,4.212132541620731,1.1222101320058109,-0.2446396648883819,-0.128297671675682,0.1775533705949783,jumping
1761226626925958400,-1.6366599759481846,4.7694168802917005,0.6931377472281456,-0.2985645234584808,0.0998501107096672,0.1636040657758712,jumping
1761226626935971600,-1.6248147859841584,5.273068997496366,0.4586521150052547,-0.3609458804130554,0.2862830758094787,0.2197450995445251,jumping
1761226626945984300,-1.4006708072945475,5.606698894560337,0.4732254147589206,-0.4238089025020599,0.4823191165924072,0.3602286875247955,jumping
1761226626955997400,-1.1603992120813578,5.726002734854817,0.4464771085649728,-0.4694744050502777,0.7129549980163574,0.5275790095329285,jumping
1761226626966011600,-1.054520012962073,5.445784109982848,0.260444249343872,-0.4538566172122955,0.8142186999320984,0.6583069562911987,jumping
1761226626976024300,-1.170265868514031,4.730554357933998,-0.3972007442206144,-0.3472414910793304,0.859978437423706,0.718738853931427,jumping
1761226626986037500,-1.4526152218043804,3.879263692057133,-1.384405024409294,-0.1736291348934173,1.0464332103729248,0.6689523458480835,jumping
1761226626996050400,-1.4270768759220838,2.99548003885448,-2.008542300647497,0.0094637209549546,1.2625772953033447,0.4752188324928283,jumping
1761226627006063400,-0.9089321960497648,1.7385300124913452,-2.013788969129324,0.138333648443222,1.3642017841339111,0.1975589096546173,jumping
1761226627016076500,-0.0086389047360047,0.4960901575177908,-1.3448504281342029,0.1645711213350296,1.2581366300582886,-0.0121192215010523,jumping
1761226627026089500,0.9795330149084328,-0.5704501097142696,-0.6603624358296394,0.1300965994596481,1.0089197158813477,-0.0553650632500648,jumping
1761226627036102700,1.876195731167495,-1.468902924260497,-0.3437684292405843,0.067836157977581,0.8041254878044128,0.0668814852833747,jumping
1761226627046115300,2.447997547751665,-2.134323812523484,-0.3153805391460657,-0.0137261971831321,0.6898964047431946,0.280845046043396,jumping
1761226627056128500,2.553383337330818,-2.894983774882555,-0.5354951161891222,-0.1532396227121353,0.5320905447006226,0.5046723484992981,jumping
1761226627066142500,2.3496730748608705,-3.842812322494388,-0.29168694434762,-0.3875756859779358,0.5058267116546631,0.6921939849853516,jumping
1761226627076155400,2.5204531276315447,-4.733309794121981,0.2469908935308456,-0.7616347670555115,-0.0438729226589202,0.8713757395744324,jumping
1761226627086168600,2.8211417090803383,-5.909405830094218,0.8323322829067706,-1.165619969367981,-0.7550398111343384,0.9612665176391602,jumping
1761226627096181500,2.096013809482008,-6.869554930096864,-0.1984574565082788,-1.423673152923584,-1.1178464889526367,0.9091817736625672,jumping
1761226627106194400,0.9139652948461472,-7.379238728681206,-2.8700299508899447,-1.5147743225097656,-0.93221116065979,0.7928590178489685,jumping
1761226627116207400,-0.0444081829192582,-8.019947200492023,-5.688068433257937,-1.5297155380249023,-0.3773649632930755,0.6877651214599609,jumping
1761226627126220500,-0.4352963373264297,-8.392654723969102,-6.92879505457282,-1.552790641784668,0.0619167499244213,0.6604160070419312,jumping
1761226627136233500,-0.3552978312537074,-8.425093935281037,-6.6278650655835865,-1.567957639694214,0.224039614200592,0.712519645690918,jumping
1761226627146246400,-0.0629665382876759,-8.888421640881896,-6.303207579526305,-1.5456035137176514,0.2643538415431976,0.7938745021820068,jumping
1761226627156259600,0.2786017825261689,-9.574972995457053,-6.446787198421359,-1.4702011346817017,0.1604674011468887,0.8202938437461853,jumping
1761226627166273300,0.1057212138122878,-9.97365842527747,-6.419010133701563,-1.3761619329452517,-0.0755803734064102,0.7368561625480652,jumping
1761226627176286500,-0.1999114912414923,-9.89467432041168,-6.080257486796379,-1.2607275247573853,-0.413524329662323,0.6095570921897888,jumping
1761226627186299600,-0.2656328492292202,-9.36354266012907,-5.79882480995953,-1.1167974472045898,-0.721736490726471,0.5204455852508545,jumping
1761226627196312300,-0.317682240217179,-8.518692256432772,-5.808175406628847,-0.9663047194480896,-0.8084434270858765,0.4439846277236938,jumping
1761226627206325500,-0.6670645638167858,-7.679958289790153,-5.822998297229409,-0.8672752976417542,-0.6875072717666626,0.3597098588943481,jumping
1761226627216338000,-1.012057420285791,-6.749844262567162,-5.166176310485601,-0.8441137671470642,-0.508438766002655,0.2873134315013885,jumping
1761226627226351000,-0.8829140307612716,-5.925244035217165,-3.9187025529980657,-0.880436897277832,-0.3681501150131225,0.2536550760269165,jumping
1761226627236363800,-0.5026797650411725,-5.212991837674379,-2.6296891628980634,-0.9224488139152528,-0.2086408734321594,0.2684587836265564,jumping
1761226627246377000,-0.1411469849206507,-4.341570822438597,-1.6451421192198992,-0.9314621090888976,-0.0927762016654014,0.3219417631626129,jumping
1761226627256390000,0.0474166348870843,-3.320452582210302,-0.6315291400551796,-0.8986144661903381,-0.0462529063224792,0.4267872273921966,jumping
1761226627266403000,-0.0093646982599049,-2.542725165194273,0.0974479823172092,-0.7779453992843628,0.0606918856501579,0.4967482089996338,jumping
1761226627276417000,-0.4366254305057227,-1.9897142660588023,0.4223141426891088,-0.6026092171669006,0.1436387002468109,0.4558873176574707,jumping
1761226627286430000,-1.2435444552145898,-1.3809247810781,1.2171581142008303,-0.4116043150424957,0.1140565574169159,0.323918342590332,jumping
1761226627296443000,-1.714072301452607,-0.7592962727904319,2.329254848471284,-0.228489339351654,0.0002626138739287,0.149153470993042,jumping
1761226627306455800,-1.858549307578802,-0.1517155790776014,3.2630408422052857,-0.043941430747509,-0.1452609598636627,-0.0506157949566841,jumping
1761226627316469000,-1.964255707414448,0.7193056231856346,3.9962113246142863,0.1542925685644149,-0.3145267069339752,-0.2482652217149734,jumping
1761226627326482200,-1.8593986178845163,1.7472095780313015,4.554150327801704,0.3388680815696716,-0.4513334631919861,-0.4075656235218048,jumping
1761226627336494800,-1.5346718659833072,2.78503228482306,4.982641113299131,0.4719483852386474,-0.58045893907547,-0.5092536211013794,jumping
1761226627346508000,-1.1380397884961218,3.73913216778934,5.440435734692215,0.5588569045066833,-0.7252376675605774,-0.5417580008506775,jumping
1761226627356521000,-0.7670527321361005,4.49526091645956,5.750535118564963,0.612607479095459,-0.8270713686943054,-0.5257369875907898,jumping
1761226627366534000,-0.5414403613943606,5.060286078515649,5.65369036283791,0.6752005219459534,-0.8213340640068054,-0.4969242513179779,jumping
1761226627376548000,-0.4602150534730404,5.512569827532768,5.334366054502129,0.7489293217658997,-0.7583271861076355,-0.4776125848293304,jumping
1761226627386561000,-0.3633109687741845,5.784307039785385,5.067469268018007,0.8286224603652954,-0.6300196647644043,-0.4642222821712494,jumping
1761226627396574000,-0.2541496061790734,5.844142792066932,4.86350736887455,0.8662853837013245,-0.4176866114139557,-0.4739883542060852,jumping
1761226627406587000,-0.3593960603527724,5.951563886865973,4.916944360029697,0.8382627964019775,-0.2267340719699859,-0.4954023659229278,jumping
1761226627416600000,-0.6374898750904947,6.108067284741997,5.237857983383536,0.7519057989120483,-0.0646673962473869,-0.5178855657577515,jumping
1761226627426612700,-0.7431590116556733,6.046103872781992,5.404399960193038,0.6512830853462219,0.0740937739610672,-0.5494120121002197,jumping
1761226627436626000,-0.7539975818604231,5.8140165338724845,5.401741554638743,0.5408734679222107,0.116938441991806,-0.5831699967384338,jumping
1761226627446639000,-0.7425158914465457,5.5691889558553695,5.251438180446624,0.4889048039913177,0.1832800954580307,-0.6391963958740234,jumping
1761226627456652000,-0.716715825888142,5.105563144090771,4.743741171765327,0.4597525000572204,0.2010361850261688,-0.6745855212211609,jumping
1761226627466665000,-0.3065887454032898,4.636788278999925,4.899190676674246,0.3311270773410797,0.0099044926464557,-0.6129631400108337,jumping
1761226627476678000,0.399696944950521,3.980819694215059,5.464204148292541,0.0954312086105346,-0.3815191984176636,-0.4483121335506439,jumping
1761226627486691800,0.7992796158716082,3.252264596647024,5.467087010252476,-0.0933700576424598,-0.899878740310669,-0.2452592849731445,jumping
1761226627496705000,0.3758380765877664,2.304462937042117,3.90481957359612,-0.0617823079228401,-1.2684376239776611,-0.1028533950448036,jumping
1761226627506718000,-0.5849501250360161,1.090769284081459,1.2392659011125564,0.183755487203598,-1.434992790222168,-0.1077590808272361,jumping
1761226627516731100,-1.4810181633375583,-0.0447404744803905,-1.1050713656783104,0.5035737156867981,-1.3974791765213013,-0.2614855468273163,jumping
1761226627526743800,-2.4747104903712867,-1.1221925963491202,-2.735409883520007,0.7527869939804077,-1.1640911102294922,-0.5382722616195679,jumping
1761226627536757000,-3.553326979844272,-2.166331062158942,-3.678659871169924,0.7647131085395813,-0.7132490873336792,-0.929470419883728,jumping
1761226627546770000,-4.441430249811709,-2.797747974011302,-3.68547598092556,0.483639657497406,-0.180417463183403,-1.304386854171753,jumping
1761226627556782800,-4.328575731787085,-2.986217704990506,-3.2483167358040808,0.1314206272363662,0.3964948654174804,-1.5047526359558103,jumping
1761226627566796000,-2.843652816095948,-3.2780548714637754,-3.969578753754496,-0.0567594021558761,1.034801363945007,-1.5524184703826904,jumping
1761226627576809000,-0.8685374226234853,-3.505497014915943,-5.326206128922104,-0.0101231886073946,1.4980992078781128,-1.5208868980407717,jumping
1761226627586823000,0.8155414532341062,-3.766003808102012,-6.109888654950261,0.2161743938922882,1.6716331243515017,-1.4471797943115234,jumping
1761226627596835800,2.0765404627271,-4.110711564019322,-5.935154019334912,0.5179709792137146,1.3588919639587402,-1.3345768451690674,jumping
1761226627606849000,3.084305738776922,-4.581739760994911,-5.439395870250463,0.7786386609077454,0.949714183807373,-1.259708285331726,jumping
1761226627616862000,3.668296005804837,-5.152625339516997,-4.91867396030128,0.8851850628852844,0.5351604223251343,-1.2623463869094849,jumping
1761226627626875000,3.5413451578885318,-4.825938977980614,-3.8757530535876743,0.8352680206298828,0.128332644701004,-1.2563260793685913,jumping
1761226627636888000,3.4978035378038883,-3.81785323780477,-2.893233716344833,0.6552548408508301,-0.0532352812588214,-1.129725217819214,jumping
1761226627646901000,3.888017491877079,-3.0410721617281435,-2.354901915425062,0.3774597644805908,-0.0570258982479572,-0.8965262770652771,jumping
1761226627656914000,4.226236762557924,-2.689212780490517,-1.899400373405218,0.0546681433916091,0.0130948685109615,-0.6391932964324951,jumping
1761226627666926800,4.481240574413538,-2.568277539601922,-1.3977590115010738,-0.2643556594848633,0.1164121106266975,-0.4040213227272033,jumping
1761226627676940000,4.598355672492087,-2.4242589447677134,-0.7912672820687293,-0.5186201333999634,0.1071786656975746,-0.1653304398059845,jumping
1761226627686953000,4.654067915102839,-2.1219898161292075,-0.1537017844587564,-0.6494584679603577,0.0167843010276556,0.0840804353356361,jumping
1761226627696967000,4.2583074328184125,-1.8117232589960095,0.074161799275875,-0.6153503060340881,-0.0650490447878837,0.3081817328929901,jumping
1761226627706980000,3.1876787272289397,-1.4813152465879915,0.1019791960060596,-0.496382474899292,-0.1280983537435531,0.4247631728649139,jumping
1761226627716992800,1.4472000648878514,-1.0541600936084985,0.5706342341095209,-0.4704329073429107,-0.3144541084766388,0.4179284274578094,jumping
1761226627727006000,-0.1471765474084764,-0.5874824930578469,1.739600856593251,-0.556221067905426,-0.5617286562919617,0.3614908456802368,jumping
1761226627737019100,-1.0298355074301362,-0.202162740767002,2.684090615171194,-0.8138473033905029,-0.7816381454467773,0.2544980645179748,jumping
1761226627747031800,-1.5591114568434654,0.5062713597923517,3.5518899327784776,-1.2082728147506714,-0.972375512123108,0.1667103469371795,jumping
1761226627757045000,-1.4238506073519586,1.2465338462889193,3.965476579132676,-1.6194257736206057,-1.055540919303894,0.1549415737390518,jumping
1761226627767058000,-1.0015794270217415,1.9833914927780627,3.423210361373424,-1.928683042526245,-0.9204643368721008,0.1853737086057663,jumping
1761226627777071000,-0.8533445296667516,2.7994664683669805,2.0770073495864865,-2.053460597991944,-0.5147333741188049,0.2226337194442749,jumping
1761226627787083800,-0.9075421299308538,3.426342229658365,0.4776549216389655,-1.9414772987365725,0.031914971768856,0.2372321188449859,jumping
1761226627797098000,-0.9125934219710528,3.9398517240107056,-0.5698533128648996,-1.6192715167999268,0.5107452273368835,0.2295062988996505,jumping
1761226627807111000,-0.879644945962727,4.277147742366791,-0.766998517730832,-1.1548759937286377,0.7808588147163391,0.1632993668317794,jumping
1761226627817123800,-0.927326588461548,4.431334679993987,-0.2653244226008653,-0.6011466979980469,0.8262065649032593,0.0509099774062633,jumping
1761226627827137000,-0.8693835911240428,4.331006758326292,0.6088321550786495,0.0073764426633715,0.7055702209472656,-0.1118751764297485,jumping
1761226627837150000,-0.8234050262160598,4.278365301463007,1.4879413867294788,0.5898348093032837,0.4970396757125854,-0.3154346942901611,jumping
1761226627847163000,-0.8023080237820744,4.4076025067508215,2.536321143370867,1.017248034477234,0.2669319808483124,-0.5373004674911499,jumping
1761226627857176000,-0.9463334136832504,4.549999637863039,3.713683838278055,1.186160683631897,-0.0043892855755984,-0.7561638355255127,jumping
1761226627867189000,-1.0890470633987337,4.853450669762492,4.891244686105847,1.1398757696151731,-0.28830686211586,-0.9116440415382384,jumping
1761226627877202000,-0.823704155293107,5.170867098650336,5.447591451665759,0.9643322825431824,-0.4305979609489441,-0.9397917985916138,jumping
1761226627887214800,-0.3775565709434449,5.433336716341972,5.321241199991107,0.6574998497962952,-0.34883913397789,-0.802812397480011,jumping
1761226627897228000,0.0620777590546757,5.795622799047828,5.226393755561113,0.2457857877016067,-0.1028413400053978,-0.516184389591217,jumping
1761226627907242000,0.4094862983632832,6.062004037225246,4.993425542163848,-0.1422103643417358,0.2634525597095489,-0.1598103195428848,jumping
1761226627917255000,0.3543587968379258,5.927464633876085,4.140301815640926,-0.3983835577964782,0.790016233921051,0.1609333455562591,jumping
1761226627927268000,-0.1513998641919344,5.276637503632903,3.1720629326850176,-0.6184579133987427,1.2861897945404053,0.3670917153358459,jumping
1761226627937280800,-0.5928339370884,4.434694511815906,3.142331226766109,-0.8331859111785889,1.5581837892532349,0.5199105143547058,jumping
1761226627947294000,-0.7137122601579874,3.5815561722457407,3.270561300837993,-0.9308629631996156,1.6252614259719849,0.6283664703369141,jumping
1761226627957307000,-0.9264191182278096,2.497612350270152,2.6913474544316527,-0.834958016872406,1.662295699119568,0.6510099768638611,jumping
1761226627967320000,-1.1654702317353338,1.2100789695948362,1.8234996215075252,-0.6391007900238037,1.3753174543380735,0.5495361089706421,jumping
1761226627977333000,-1.8210130653887984,0.0245762228518724,1.8987042078346013,-0.3835028111934662,0.5599531531333923,0.3714142739772796,jumping
1761226627987346000,-2.051542068940401,-0.974025649663806,1.546522755035758,0.0187058039009571,-0.4059224724769592,0.1948993504047393,jumping
1761226627997359000,-1.720883588902652,-1.666947123792767,-0.4406605312407016,0.5585263967514038,-1.1159436702728271,0.0515299402177333,jumping
1761226628007371800,-1.6964233936458826,-1.859263593327999,-3.059277680504322,1.126868724822998,-1.4280450344085691,-0.0103065390139818,jumping
1761226628017386000,-1.8397849858760835,-2.0030542246252296,-5.353755230104923,1.5479989051818848,-1.3084264993667605,-0.0399864055216312,jumping
1761226628027399200,-2.205825452679396,-2.4085849902957674,-6.9026803701072925,1.7403453588485718,-0.7233632206916809,-0.074839673936367,jumping
1761226628037411800,-2.319054356974364,-3.1940643366128203,-7.981526576682925,1.783558368682861,0.3487095534801483,-0.0903951972723007,jumping
1761226628047425000,-1.4433032035797833,-4.768100536996126,-8.967494008553027,1.6633131504058838,1.5768390893936155,-0.1343116462230682,jumping
1761226628057438000,-0.2672358822453767,-6.606811171638965,-7.9886904769629234,1.2492568492889404,2.2362232208251958,-0.290492981672287,jumping
1761226628067451000,0.4989565067343413,-8.121722398358584,-4.8368753825366495,0.5948165655136108,2.1881632804870605,-0.436502993106842,jumping
1761226628077463800,2.742002705913782,-10.065071803605557,-1.7154478275895118,-0.2017516642808914,1.1747008562088013,-0.4570101499557495,jumping
1761226628087477000,4.7295773295953865,-10.905663380813598,0.7958096016734838,-1.0023555755615234,-0.5028818249702454,-0.5072833299636841,jumping
1761226628097490200,4.112681695048511,-9.117485248056054,1.2444909422844648,-1.694128394126892,-1.8589732646942136,-0.466770738363266,jumping
1761226628107502800,3.738062492731213,-7.3550611497581,-1.4405524435669184,-2.128730773925781,-2.364184617996216,-0.2067423313856125,jumping
1761226628117516000,3.701564945939183,-6.700434042710065,-5.797358244538307,-2.2067103385925293,-1.8950669765472408,0.0903412699699401,jumping
1761226628127530000,2.571673027259111,-5.734679377785325,-10.174682517403363,-1.8587876558303835,-0.7052718997001648,0.32174813747406,jumping
1761226628137543000,1.605617041300237,-5.053977918282151,-13.24834761970043,-1.1996878385543823,0.4635652601718902,0.5092988610267639,jumping
1761226628147556000,1.541580184067041,-4.84024982740581,-12.815378227484226,-0.4926555752754211,1.0593088865280151,0.7393701076507568,jumping
1761226628157569000,2.363740178658068,-4.634171374499798,-9.428341003254056,0.1058230325579643,1.0837491750717163,0.9667382836341858,jumping
1761226628167582000,2.879912754739821,-4.1282653408885,-5.275107809847593,0.5789010524749756,0.7223467826843262,1.1199028491973877,jumping
1761226628177595000,2.468239540791511,-3.252843857839703,-1.5129232677727935,0.9202149510383606,0.1753170192241668,1.1630817651748655,jumping
1761226628187608000,1.4521166246324777,-2.240764079591632,1.629227926251292,1.0672638416290283,-0.3830091953277588,1.0940524339675903,jumping
1761226628197621000,0.7350762429650872,-1.2609423108696938,4.082076421165466,0.9949254989624025,-0.7401697039604187,0.9726647734642028,jumping
1761226628207634000,0.5748906494449824,-0.2537240011781454,5.796824576053023,0.6876951456069946,-0.8855125904083252,0.8675965070724487,jumping
1761226628217646800,0.5169158687297255,1.0380664524197578,6.94026512761414,0.2504259347915649,-1.042945384979248,0.816181480884552,jumping
1761226628227660800,0.0238487488275393,2.425941783288121,7.750760841766,-0.2424446642398834,-1.1683346033096311,0.797244131565094,jumping
1761226628237674000,-0.1900685810105875,2.92692146641314,7.6170578892409795,-0.6688258051872253,-1.1011406183242798,0.7779514193534851,jumping
1761226628247687000,-0.6395537488177419,2.894506220498681,6.510905742588639,-0.9227108359336852,-0.8630081415176392,0.6648043394088745,jumping
1761226628257699800,-1.5081595605023204,3.033213849443197,5.006081610119343,-1.0009795427322388,-0.5082178711891174,0.458420842885971,jumping
1761226628267713000,-2.050865192592144,3.003261778771877,3.651598261243105,-0.9267979264259338,-0.1167175620794296,0.2297105938196182,jumping
1761226628277726000,-2.126534912212938,2.999202274248004,2.6696634458899497,-0.7353115677833557,0.2955594658851623,0.0017307031666859,jumping
1761226628287739100,-2.048876502992958,3.2166274660766123,1.9083271917045117,-0.38499915599823,0.7098538875579834,-0.2338896244764328,jumping
1761226628297751800,-1.8642901893183588,3.5354514236748216,1.5906068114340304,0.0348345898091793,0.9543070197105408,-0.4269131422042846,jumping
1761226628307765000,-1.2950795582711696,4.080268494960666,2.191150446116924,0.4339061975479126,0.9145785570144652,-0.532866358757019,jumping
1761226628317778000,-0.4412270790822803,4.787700140479207,3.4045512536108493,0.715183675289154,0.578529417514801,-0.5492245554924011,jumping
1761226628327790800,0.3002378785392269,5.432049599140882,4.866189155304432,0.8166324496269226,0.0709085240960121,-0.4783440232276916,jumping
1761226628337805000,0.9782991622645408,5.902639404699206,5.955768352818489,0.7899718284606934,-0.4477120041847229,-0.3411217033863067,jumping
1761226628347818000,1.09189112771824,6.233879776278138,6.190566704252362,0.7254292964935303,-0.7512089610099792,-0.2064770758152008,jumping
1761226628357831000,0.813701086064428,6.36381080904901,5.52977932100892,0.6431311964988708,-0.8265689611434937,-0.1336135119199752,jumping
1761226628367843800,0.1853793820147402,6.314767084416746,4.610886360502243,0.5624364614486694,-0.7412306666374207,-0.1181322634220123,jumping
1761226628377857000,-0.3538451116947457,6.175619895011186,3.776070444086194,0.5027241110801697,-0.503155529499054,-0.1227523237466812,jumping
1761226628387870000,-0.5501680038597434,5.9805830606013535,2.8920027132451533,0.4840069115161896,-0.1903115212917328,-0.1305073201656341,jumping
1761226628397883000,-0.7216248599134385,5.904163253265619,2.367739185166359,0.5142127871513367,0.0596045777201652,-0.0868834182620048,jumping
1761226628407896000,-0.6075405078329146,5.52797139480412,2.0830729332357643,0.5621432065963745,0.2756290733814239,-0.0075486097484827,jumping
1761226628417909000,-0.3913112477906048,4.715160973969102,1.9895254654884336,0.5392194986343384,0.4866515696048736,0.0475990623235702,jumping
1761226628427922000,-0.2786522888706997,3.601976444461941,2.3207751894176005,0.4029847681522369,0.6594949960708618,0.0906315073370933,jumping
1761226628437934800,-0.0505258529487997,2.4221008899509906,2.886222960799932,0.2076456397771835,0.6745315194129944,0.1236549690365791,jumping
1761226628447949000,0.2673180441034957,1.1925696163892745,3.489478777050972,-0.0319239981472492,0.4105076491832733,0.1932239830493927,jumping
1761226628457962000,0.935528161226213,-0.004168225595355,3.6764784354776143,-0.2080265879631042,-0.1010555028915405,0.3270414173603058,jumping
1761226628467975000,1.831283845642954,-1.237019583490491,2.4594044924288987,-0.1838937252759933,-0.6865385174751282,0.4747581481933594,jumping
1761226628477988000,1.9186404959261416,-2.4379350034207103,0.0297767141044139,0.0466771647334098,-1.1852636337280271,0.5298224687576294,jumping
1761226628488000800,0.8103621509000658,-3.614243220838904,-2.676266789677739,0.4000478982925415,-1.3562800884246826,0.4741297662258148,jumping
1761226628498014000,-0.5279695064572617,-4.90078759047687,-5.564239224493504,0.812082052230835,-0.7535058259963989,0.2609266936779022,jumping
1761226628508027000,-1.9231348847359415,-6.090064010539651,-8.32963566547632,1.1711442470550537,0.3060726821422577,-0.0919392481446266,jumping
1761226628518040000,-3.632437049177289,-6.391257618901133,-9.019512949603795,1.2226942777633667,1.2391884326934814,-0.5953552722930908,jumping
1761226628528053000,-5.113517317965626,-5.635615776965022,-6.971517759490013,0.8757156133651733,1.5328761339187622,-0.999338924884796,jumping
1761226628538066000,-4.2066055948928,-5.003078921172023,-3.519580485326052,0.2404665052890777,1.1665236949920654,-1.1487329006195068,jumping
1761226628548079000,-1.5940458459720015,-5.045182617408037,-1.3822317720234394,-0.3998943865299225,0.5735929608345032,-1.1359308958053589,jumping
1761226628558093000,0.5168919033322483,-4.292209702420235,-2.1576713703632358,-0.7392434477806091,0.2759445011615753,-1.0226554870605469,jumping
1761226628568106000,1.4881617514818906,-2.6261662494689224,-5.1767818756520745,-0.7365254759788513,0.3240273892879486,-0.7535390853881836,jumping
1761226628578119000,2.132364641279727,-1.4955115297228097,-8.173972225555778,-0.4931573271751404,0.5785544514656067,-0.3048433065414428,jumping
1761226628588131800,2.505922205714881,-1.06978611728549,-9.76890274540782,-0.2201841026544571,0.7779482007026672,0.1165646091103553,jumping
1761226628598145000,2.0589200503624974,-1.4000555980056524,-9.298089067965746,0.0932736918330192,0.831450879573822,0.5114061832427979,jumping
1761226628608158000,1.6861597737848757,-2.6986288436114787,-8.41548497993648,0.2949470579624176,0.7718067169189453,0.6420236229896545,jumping
1761226628618171000,0.59287134648934,-4.194380611830949,-6.845045927262306,0.3964760899543762,0.5111258625984192,0.5369911789894104,jumping
1761226628628183800,-0.2679641965199262,-5.17835774666667,-5.057864404326677,0.4626032710075378,0.1858369261026382,0.2865301966667175,jumping
1761226628638197000,-0.7808286709669977,-5.474006580382585,-3.549354861342907,0.5150907039642334,-0.2219050228595733,-0.0289039351046085,jumping
1761226628648210200,-1.0167347644470632,-5.042159470194578,-1.8132541218250988,0.4794320464134216,-0.5944070816040039,-0.2774321436882019,jumping
1761226628658222800,-0.3115400842003524,-4.375896285888553,-0.3413356491357088,0.2900631725788116,-0.779707133769989,-0.4144280850887298,jumping
1761226628668237000,0.6731114427655935,-3.531826803436875,0.7405389653503894,-0.0701630935072898,-0.6519162058830261,-0.4819205999374389,jumping
1761226628678249700,1.1633259131830185,-2.3994711249917744,1.5192203220903873,-0.5032383799552917,-0.3159293830394745,-0.4711659550666809,jumping
1761226628688263000,1.5477207326486706,-1.0864859076738358,2.027203746497631,-0.8782928586006165,0.0582708641886711,-0.3607344031333923,jumping
1761226628698276000,1.9112015780970453,0.0778559776186943,2.332277411162853,-1.1559079885482788,0.3741811513900757,-0.2044630348682403,jumping
1761226628708289000,1.7563428786881268,0.8627817817062139,2.6339468203425405,-1.319223403930664,0.5104765295982361,-0.0681090205907821,jumping
1761226628718302000,1.2139322840221225,1.2847896349251269,2.987289133614301,-1.349970459938049,0.5322878360748291,-0.0248891152441501,jumping
1761226628728315000,0.2646711463239043,1.4955886866122483,2.996037088215351,-1.2532552480697632,0.46155846118927,-0.1148393750190734,jumping
1761226628738328000,-0.9372088808547704,1.8828794467151164,3.093121497917175,-1.0605193376541138,0.2847530841827392,-0.2842656672000885,jumping
1761226628748340700,-1.4778525389134882,2.463588500115275,3.368508464848995,-0.8393438458442688,-0.005586598534137,-0.4614625573158264,jumping
1761226628758354000,-1.4433677932485938,3.1804999216407537,3.7194530693292616,-0.6368791460990906,-0.3186768591403961,-0.5751052498817444,jumping
1761226628768367000,-0.9970984091501682,3.955152753517032,4.027594304871559,-0.4740133285522461,-0.5783823728561401,-0.5999169945716858,jumping
1761226628778380800,-0.5703571707338094,4.681584867581725,4.188364128020406,-0.3458952903747558,-0.7491426467895508,-0.5198559761047363,jumping
1761226628788394000,-0.2314223721947521,5.24674680776,4.083751660901308,-0.2499477714300155,-0.7738482356071472,-0.3760498464107513,jumping
1761226628798407000,-0.1212594313416629,5.658480519723892,3.828407949566841,-0.1922642290592193,-0.5770233273506165,-0.2158923745155334,jumping
1761226628808419800,-0.24640673696734,5.814869351309538,3.7003777819812296,-0.1670817285776138,-0.3162432014942169,-0.0621406883001327,jumping
1761226628818433000,-0.5556189627420157,5.749479472032189,3.920670053678751,-0.1594842672348022,-0.0615658983588218,0.0391800776124,jumping
1761226628828446000,-0.9599328999686986,5.601640442126989,4.26118444955945,-0.1473732590675354,0.1639533042907714,0.080421932041645,jumping
1761226628838459100,-1.205435893029347,5.303850504729152,4.649356084150075,-0.1368042379617691,0.3375064730644226,0.0694726184010505,jumping
1761226628848471800,-1.2958800609990957,5.009942377200723,5.187803035882115,-0.1361385285854339,0.3900264203548431,0.0387237630784511,jumping
1761226628858485000,-1.280699443002045,4.908408586874604,5.698679843643308,-0.1265594065189361,0.2936948239803314,-0.0094789192080497,jumping
1761226628868498000,-1.2332923796609043,4.904454880812764,5.879962877988815,-0.0805001407861709,0.1488807499408722,-0.0419169478118419,jumping
1761226628878510800,-1.0379369808211922,4.937894209077954,5.660448604926467,0.0133720291778445,-0.0531431846320629,-0.0572479665279388,jumping
1761226628888525000,-1.1293413721252232,5.040743758177757,5.30411470862329,0.1874237954616546,-0.2437340319156646,-0.0609611347317695,jumping
1761226628898538000,-1.2079182113643734,5.089375394877791,4.6326066094011065,0.4273565113544464,-0.4004810452461242,-0.0881924927234649,jumping
1761226628908551000,-1.4654419701516628,5.186588983917236,3.8802234769999977,0.6783266663551331,-0.5407826900482178,-0.1658478379249572,jumping
1761226628918563800,-1.847108168371021,5.2019689238786695,3.1476836937099693,0.9089494943618774,-0.5775564312934875,-0.2266004085540771,jumping
1761226628928577000,-1.8707438955023885,5.135140536230802,2.44832312644422,1.0960482358932495,-0.5961896181106567,-0.2710502445697784,jumping
1761226628938590000,-1.992480369771272,5.20323616733551,1.961270846384764,1.2000601291656494,-0.6239738464355469,-0.2966592013835907,jumping
1761226628948603000,-1.9326126149162648,5.174392350167036,1.6652420734405518,1.2039591073989868,-0.7307091355323792,-0.2542258203029632,jumping
1761226628958616000,-1.6610644954949616,4.986012051036954,1.5087959587097166,1.1573982238769531,-0.8998706936836243,-0.1394638121128082,jumping
1761226628968629000,-1.372139124815166,4.470705736395717,0.6841051304668188,1.1605327129364014,-0.9908019304275512,0.0037137027829885,jumping
1761226628978642000,-1.511322554577887,3.831346925628185,-0.8925836302518844,1.2738441228866575,-0.8885765075683594,0.137815311551094,jumping
1761226628988654800,-1.7299895631611346,3.051940177223086,-2.616914436998963,1.4365413188934326,-0.6042271852493286,0.261706531047821,jumping
1761226628998668000,-1.6788976738274095,1.997109637007117,-4.124916614982485,1.62965190410614,-0.1656109243631363,0.3822188377380371,jumping
1761226629008682000,-1.5686463240385056,0.7298311088532209,-5.481988226786256,1.804530143737793,0.6788009405136108,0.4696446657180786,jumping
1761226629018695000,-1.3434504982084037,-1.1126987918168303,-6.455153460228443,1.821856379508972,1.7893444299697876,0.4611585140228271,jumping
1761226629028708000,-0.6093867202214897,-3.387300843602419,-5.8561833584725855,1.5507537126541138,2.715904235839844,0.4053261578083038,jumping
1761226629038720800,0.2717273484457284,-5.538594495627284,-3.4752100132018326,0.8898839354515076,2.8319520950317383,0.3244110643863678,jumping
1761226629048734000,0.9533195462435484,-7.757673982155323,0.2797112598717212,-0.0491665340960025,1.8429046869277956,0.190159410238266,jumping
1761226629058747100,2.3242180233478544,-10.817225218904015,2.6264754615485666,-0.9086487293243408,0.0536423549056053,0.0507953912019729,jumping
1761226629068759800,2.8791601828068494,-12.693699474751948,1.6872195119708775,-1.2926499843597412,-1.6393150091171265,-0.093493603169918,jumping
1761226629078773000,1.7679608357675372,-12.159612471795082,-3.128568074351549,-1.126779317855835,-2.40012526512146,-0.2130833864212036,jumping
1761226629088786000,0.2709149360843003,-11.230793160557749,-9.230618875283003,-0.6234071254730225,-2.136754035949707,-0.2710766792297363,jumping
1761226629098799000,-0.7991247175708412,-10.64593926243782,-13.26578975288868,-0.0386000871658325,-1.2518998384475708,-0.2521344125270843,jumping
1761226629108811800,-1.074783706377074,-10.139313097858428,-14.477231243008374,0.484363317489624,-0.1622704416513443,-0.1249007582664489,jumping
1761226629118826000,-0.57869033398889,-9.466335510605573,-13.22382341929674,0.8667155504226685,0.7402594089508057,0.1146899908781051,jumping
1761226629128839000,0.4953126703392714,-8.697409239682555,-10.157211158120631,1.101687788963318,1.2533323764801023,0.4347405731678009,jumping
1761226629138851800,1.6851023736864328,-8.007844674766064,-6.2119707268089055,1.2535542249679563,1.376884698867798,0.7517589926719666,jumping
1761226629148865000,2.447358373065293,-7.360701785993576,-2.272647410586476,1.3026957511901855,1.040088176727295,1.0030088424682615,jumping
1761226629158878000,2.8931898772031066,-6.781518334725499,1.4918039073765277,1.213591694831848,0.2841224670410156,1.2212839126586914,jumping
1761226629168891000,3.533164481781423,-6.164354989153146,4.635180259281396,0.9651323556900024,-0.6038345098495483,1.39887535572052,jumping
1761226629178904000,3.72868734614253,-5.393077771189809,6.670783000811934,0.6046125292778015,-1.3880212306976318,1.5179612636566162,jumping
1761226629188917000,2.9669618003785607,-4.115203030219674,7.537213952675462,0.1810733079910278,-1.9462615251541135,1.5797990560531616,jumping
1761226629198930000,1.7783770158417522,-2.439569911146164,7.64827778789103,-0.2654386758804321,-2.2870373725891118,1.5817972421646118,jumping
1761226629208942800,0.6844288825284689,-0.757867701292038,7.321862059989571,-0.7170444130897522,-2.5314481258392334,1.5350967645645142,jumping
1761226629218957300,-0.4469216374620795,0.5916255842119456,6.550171585050225,-1.1086465120315552,-2.546294927597046,1.4234415292739868,jumping
1761226629228971000,-1.6025367570720612,1.3538947353333235,5.079653042286634,-1.3911871910095217,-2.2629518508911133,1.2031385898590088,jumping
1761226629238984200,-2.592845871408284,2.057028975918889,3.5622383083134888,-1.578080415725708,-1.7683783769607544,0.8910924792289734,jumping
1761226629248996900,-3.202275115597248,2.758895973047614,2.462819853830337,-1.6779505014419556,-1.1142168045043943,0.5428335666656494,jumping
1761226629259010000,-3.1174481299221517,3.312783655017614,1.7565046451210975,-1.7242748737335205,-0.4465471804141998,0.1912726312875747,jumping
1761226629269023200,-2.5376456699728966,3.8970179599344728,1.6971978851497171,-1.753298282623291,0.1157206073403358,-0.1098757982254028,jumping
1761226629279036200,-1.633670584873855,4.612434174466133,2.126316447156668,-1.7579697370529177,0.5479044914245605,-0.3301333487033844,jumping
1761226629289049000,-0.6260525352749973,5.311421232244372,2.6943957360863684,-1.7217040061950684,0.8935853242874146,-0.4576275944709778,jumping
1761226629299062000,0.263475360668078,5.806860816898942,3.0888351989001035,-1.6048660278320312,1.170138597488403,-0.5029662847518921,jumping
1761226629309075200,0.9461553537026048,6.081938571751118,3.493697856050729,-1.437180519104004,1.3360334634780884,-0.4751946628093719,jumping
1761226629319087900,1.4635620016239583,6.275182093003392,4.079985001844167,-1.2326537370681765,1.3488194942474363,-0.3833952248096466,jumping
1761226629329101000,1.8389356755703687,6.4052697776407,4.635661905318498,-0.9958100318908693,1.2543097734451294,-0.2623645961284637,jumping
1761226629339115300,1.875949939712882,6.379273166596889,4.941159348353743,-0.7329376339912415,1.0949549674987793,-0.1464363932609558,jumping
1761226629349128000,1.7427134356558325,6.186890061566233,5.105425781446695,-0.4386396408081054,0.9201623797416688,-0.0418836288154125,jumping
1761226629359141000,1.678772293882072,5.89248684399724,5.092085822880268,-0.1209780573844909,0.7791674137115479,0.0548338592052459,jumping
1761226629369154000,1.5605799219608305,5.78392534699142,5.032554606503248,0.2086810618638992,0.6331937313079834,0.1456673890352249,jumping
1761226629379167000,1.3792014644168316,5.813454223814606,5.168337287911773,0.4989312589168548,0.4632749855518341,0.221366673707962,jumping
1761226629389180200,1.1100361484788357,5.768177158239483,5.398703794378042,0.7277497053146362,0.236702874302864,0.2671017050743103,jumping
1761226629399193000,0.7171634965904057,5.612808901873231,5.614622673296928,0.883776068687439,-0.037131879478693,0.263581782579422,jumping
1761226629409206300,0.2633940025275573,5.327924038755893,5.4861973689138885,1.007764458656311,-0.2217670381069183,0.1937352865934372,jumping
1761226629419219000,-0.0204510326806455,4.900926706686616,4.845813891273736,1.1184760332107544,-0.3662605583667755,0.1030088439583778,jumping
1761226629429232000,0.1103337308427318,4.55874583889842,4.182953208887577,1.192990779876709,-0.4790411591529846,0.0784497037529945,jumping
1761226629439245000,0.3136206898666918,4.381073980787396,3.712706517678499,1.1851109266281128,-0.5962470769882202,0.1452962905168533,jumping
1761226629449258000,0.3569095772992819,4.2486727585107085,3.3516309798061847,1.0884428024291992,-0.7496055960655212,0.2843199968338012,jumping
1761226629459272200,0.0930749548647552,3.7357799347519873,2.924817772132158,0.9265848994255066,-0.9234597086906432,0.4068139493465423,jumping
1761226629469285000,-0.9274285875312984,2.7089742965370416,2.0565590203195807,0.7656546831130981,-1.1166616678237915,0.392067551612854,jumping
1761226629479298000,-2.5892963622331617,1.4833020364910363,0.5426356355935334,0.7281752228736877,-1.2992525100708008,0.2312728017568588,jumping
1761226629489311000,-3.739102064912021,0.3167810535937547,-2.025984433835745,0.8889752626419067,-1.203335523605347,0.0112229576334357,jumping
1761226629499324200,-4.088562276053429,-0.7744932574003934,-5.270964134171605,1.2005151510238647,-0.6418604850769043,-0.2278404831886291,jumping
1761226629509337000,-4.160190465198457,-1.619785559645295,-7.921596131855249,1.541057825088501,0.3505241274833679,-0.4494389295578003,jumping
1761226629519350000,-3.450346790102124,-2.7205671191751954,-9.42589185653627,1.8015083074569704,1.8571680784225464,-0.5502233505249023,jumping
1761226629529363200,-1.1192987746037542,-4.797669745829701,-9.429659100115298,1.80262303352356,3.226851463317871,-0.4100996255874634,jumping
1761226629539376000,1.8110976744435727,-7.054055172923207,-6.752819478985667,1.4418734312057495,3.5878138542175293,-0.0740257427096366,jumping
1761226629549389000,4.092909949868917,-9.372970998209714,-2.784685078820586,0.7510068416595459,2.5978689193725586,0.3490357995033264,jumping
1761226629559402000,5.58916265334785,-12.16435294432044,0.2252542780190706,-0.0738689377903938,0.5118238925933838,0.5665867328643799,jumping
1761226629569416000,4.79869791983366,-13.935539610266686,0.8584767779886722,-0.76837557554245,-1.7571531534194946,0.5298796892166138,jumping
1761226629579429000,2.891631249584257,-13.638082265824078,-2.0550690740227697,-1.051309585571289,-3.3329195976257324,0.4979817271232605,jumping
1761226629589442000,1.125345653552562,-12.094648708975315,-7.640834486147761,-0.9278895258903505,-3.8375320434570312,0.5423299074172974,jumping
1761226629599455200,-1.0444161867726591,-9.887074366801976,-12.99901630052328,-0.5029036402702332,-3.1312623023986816,0.6470164060592651,jumping
1761226629609468000,-2.922457472741604,-7.90104083508253,-16.83119207819104,0.1063531190156936,-1.536246418952942,0.8364235162734985,jumping
1761226629619481000,-3.1974273833051323,-6.623966304579377,-18.06718933289647,0.7098273038864136,0.322207897901535,1.1399331092834473,jumping
1761226629629494300,-2.410290186778456,-5.811383847281337,-15.88141765720844,1.087785720825195,1.8089654445648196,1.4667311906814575,jumping
1761226629639507000,-1.6090101908698675,-5.4713849997073405,-10.89476789278984,1.256885290145874,2.80637526512146,1.675066351890564,jumping
1761226629649520000,-1.3555208752304315,-5.4145086817532775,-5.259084895807504,1.3006868362426758,3.2832281589508057,1.651975154876709,jumping
1761226629659533000,-1.5357396413452922,-5.244730791762471,0.1920949357390403,1.2116957902908323,3.1411499977111816,1.4264357089996338,jumping
1761226629669546200,-1.0656152613416314,-5.289415152141451,5.138115168127417,0.9889070391654968,2.4639832973480225,1.0715380907058716,jumping
1761226629679559000,0.3312302885763347,-5.0478398539185525,8.730556307002901,0.6939877271652222,1.6885709762573242,0.7267215847969055,jumping
1761226629689573000,1.537799934875965,-3.911899302724004,10.23981696061492,0.3550602495670318,0.4690044224262237,0.4226734638214111,jumping
1761226629699586000,-0.150243899089843,-0.994857425290346,11.481935328549143,-0.0638978853821754,-1.0052067041397097,0.1696119159460067,jumping
1761226629709599000,-0.5138270358689129,1.1551520321428774,12.12082359919548,-0.5115393996238708,-2.1548666954040527,0.0338480919599533,jumping
1761226629719612200,1.0890193716742098,2.0481781454652546,11.025409704178571,-0.9201782941818236,-2.8310530185699463,0.0145628079771995,jumping
1761226629729625000,1.774153991319239,3.242192115443945,8.620773159247637,-1.2296717166900637,-2.9594078063964844,0.0286232121288776,jumping
1761226629739638000,0.4175032352760434,4.305226420381665,4.629737191444635,-1.2861286401748655,-2.566515684127808,0.0561877265572547,jumping
1761226629749651200,-0.6331447585582732,4.893070732489228,1.5169792651653289,-1.1298229694366455,-1.6804572343826294,0.0454213358461856,jumping
1761226629759664000,-1.4653060688123103,5.373834141537547,-1.2557359743982552,-0.8086662292480469,-0.5918651223182678,0.0019151393789798,jumping
1761226629769677000,-1.9219269702509043,5.353221561619639,-2.66986802855134,-0.4070465564727783,0.5374451875686646,-0.0744110122323036,jumping
1761226629779690000,-1.911756581631303,5.293999557322263,-2.6873230212211605,-0.0269628707319498,1.4444752931594849,-0.1961709856986999,jumping
1761226629789703200,-1.6708800793275236,5.33410243512988,-1.138168748638034,0.2644892930984497,1.951953649520874,-0.3320218324661255,jumping
1761226629799716000,-1.319226742056012,5.327690230000019,1.1786480585426091,0.4890432953834533,2.120140552520752,-0.4883744418621063,jumping
1761226629809730000,-0.9345898574627935,5.430515813702344,3.3071541246980427,0.6469980478286743,2.0619864463806152,-0.635047197341919,jumping
1761226629819743200,-0.4707821132600307,5.632537684693932,5.519515116626024,0.6392620801925659,1.651004433631897,-0.7622166275978088,jumping
1761226629829756000,0.0666417790345847,5.830404189571738,8.088299436706304,0.4178291261196136,0.8845402598381042,-0.8468281626701355,jumping
1761226629839769000,0.5652382933501154,5.969798631736635,10.069454548734424,0.0746867060661315,-0.0515081286430358,-0.93465918302536,jumping
1761226629849782000,0.7519415991786867,6.122571026390791,10.268589466112852,-0.2082219570875167,-0.7453866600990295,-1.0222681760787964,jumping
1761226629859795200,0.6173144444808364,6.410857222384214,8.265663251781463,-0.3574026823043823,-0.9732259511947632,-1.079311728477478,jumping
1761226629869808000,0.3601810732506215,6.898326851072907,5.43298541868627,-0.3556878566741943,-0.8295999765396118,-1.0896987915039062,jumping
1761226629879821000,-0.024514044335857,7.469299523356557,2.809719566833973,-0.2396810948848724,-0.4426083266735077,-1.068960666656494,jumping
1761226629889834200,-0.4520980902519076,7.707197009849548,0.9121808956474066,-0.0703841149806976,-0.006742974743247,-1.027759313583374,jumping
1761226629899847000,-1.0104237546693533,7.777219225102662,-0.0781570063918828,0.1425824910402298,0.3834433853626251,-0.9942127466201782,jumping
1761226629909860000,-1.4812652699664235,7.510522345104813,-0.6174415779918432,0.4261731803417206,0.7099166512489319,-1.0072848796844482,jumping
1761226629919874300,-1.9333935361608865,7.119728545317053,-0.8902391129523515,0.790274977684021,0.9276527166366576,-1.1105151176452637,jumping
1761226629929887000,-2.466593234889209,6.810217774987221,-0.958866658976674,1.2361277341842651,1.0398815870285034,-1.255885362625122,jumping
1761226629939900200,-2.3263282935000955,6.629475423389673,-0.707482498922944,1.6626060009002686,1.0208746194839478,-1.3309190273284912,jumping
1761226629949913000,-1.3463643398284912,6.723368928095698,0.0266027602434158,1.9593214988708496,0.8410193920135498,-1.2598820924758911,jumping
1761226629959926000,-0.0495699130639899,6.7829439836144445,1.615326242148876,1.9749172925949097,0.2170895338058471,-0.9998509883880616,jumping
1761226629969939000,1.3799997751876711,6.250310686597228,3.4271167211622,1.8199944496154783,-0.4434691965579986,-0.6126468181610107,jumping
1761226629979952000,1.9911700178250669,5.1783928179800505,3.1443244464099407,1.6383659839630127,-0.9217313528060912,-0.251712292432785,jumping
1761226629989965000,0.915477306844294,3.895492357802391,1.2321233358815311,1.535155177116394,-1.1174540519714355,-0.0296728499233722,jumping
1761226629999978000,-1.040432889290154,2.0679022521108386,-1.650531411042809,1.6103557348251345,-0.913603901863098,-0.018068391829729,jumping
1761226630009991200,-3.0231358152821657,-0.0856862328529357,-5.0878012774288655,1.8694300651550293,-0.0169889219105243,-0.2631468176841736,jumping
1761226630020004000,-4.499035466562211,-2.502839145007729,-8.012074275159835,2.086355686187744,1.631924033164978,-0.6874046325683594,jumping
1761226630030017000,-4.092588170568645,-4.9764580407500265,-8.087413886043429,1.8695921897888184,3.4076552391052246,-1.0409363508224487,jumping
1761226630040031200,-1.1080608298178762,-7.365981187701225,-3.600886603398621,0.92480206489563,4.147213459014893,-1.0318965911865234,jumping
1761226630050044200,4.231417380066215,-10.36966031510234,4.457321938687563,-0.4989383816719055,3.3039891719818115,-0.5174833536148071,jumping
1761226630060057000,10.898714584589005,-14.652854351896046,10.714467439740895,-1.7276511192321775,0.5608957409858704,0.1866029053926468,jumping
1761226630070070000,12.906243324279783,-17.720788801586625,10.781092413771152,-2.1836276054382324,-3.0809073448181152,0.6558812260627747,jumping
1761226630080083200,8.962708527842164,-18.4820607583642,2.5946996825814246,-1.801611304283142,-6.019821643829346,0.8564995527267456,jumping
1761226630090095900,3.084902243365347,-18.17806729015112,-9.632145666009189,-0.7639235854148865,-7.050570487976074,0.870398223400116,jumping
1761226630100109000,-3.4079347585693,-16.60683387222886,-21.041707832264898,0.6840623617172241,-5.428520679473877,0.5890560150146484,jumping
1761226630110122000,-8.83768455633521,-13.980987356233596,-29.29506806731224,2.142742156982422,-2.1311633586883545,0.2401856184005737,jumping
1761226630120135200,-9.115024410900473,-12.2536480153203,-30.612739396619794,3.2174417972564697,1.0915435552597046,0.140600711107254,jumping
1761226630130148000,-5.132250660008192,-11.548721630620957,-24.542329934620856,3.720008850097656,3.2283287048339844,0.2335326075553894,jumping
1761226630140161000,-1.6815666007757186,-10.638071597802638,-14.3754683201015,3.6654438972473145,4.032222270965576,0.3242044448852539,jumping
1761226630150174200,0.5316591182228178,-9.284387290349605,-3.764184483720362,3.0984082221984863,3.5548830032348637,0.4229285418987274,jumping
1761226630160188200,2.990199468103051,-7.986307381218671,5.407240152055024,2.187589645385742,2.434558391571045,0.5687706470489502,jumping
1761226630170201000,4.830132338017225,-6.268404561692476,11.049612417542932,1.2595967054367063,1.391659379005432,0.7228477597236633,jumping
1761226630180214300,4.990482474449276,-3.7865690417468554,12.99521573919654,0.3849424719810486,0.3382745385169983,0.8142602443695068,jumping
1761226630190227000,4.386948718039691,-1.9799936670333147,13.017998064368962,-0.2848781943321228,-0.4377914667129516,0.8001944422721863,jumping
1761226630200240000,3.2467727212324737,-0.3579863396853208,10.459490808153152,-0.6487200856208801,-0.7385989427566528,0.6800493597984314,jumping
1761226630210253000,1.9744523995190857,1.5878239027172325,7.015905182749033,-0.8062512874603271,-0.5906937718391418,0.5419702529907227,jumping
1761226630220266000,0.6268926393609494,3.529723693677783,4.631909567047655,-0.8923888206481934,-0.152647465467453,0.3984650373458862,jumping
1761226630230278700,-0.506536586599797,4.923277070182562,3.664999302347004,-1.0100369453430176,0.3660500645637512,0.213490828871727,jumping
1761226630240291800,-1.0311823919944465,5.912465217664837,3.8895156214803457,-1.1862298250198364,0.752892017364502,-0.0073443446308374,jumping
1761226630250305000,-0.949562604862824,6.625130087661743,4.881108492016792,-1.3915867805480957,0.9032822251319884,-0.2164691537618637,jumping
1761226630260317700,-0.6340823316693306,7.2967697043091055,5.785027755275368,-1.5688345432281494,0.8997039794921875,-0.3944588601589203,jumping
1761226630270331000,-0.3882756064217537,8.193115901964902,6.026632279592752,-1.6753201484680176,0.894076406955719,-0.4981171190738678,jumping
1761226630280344800,-0.0488605683513917,9.146825908830762,5.819124086144567,-1.715841293334961,0.8514860272407532,-0.5144798755645752,jumping
1761226630290357800,0.3698876072181388,10.017384169757364,5.652450591909885,-1.687961459159851,0.6568926572799683,-0.4511189460754394,jumping
1761226630300371000,0.833276431889087,10.540600234609842,5.34348576502502,-1.557732105255127,0.465366393327713,-0.3357153832912445,jumping
1761226630310383900,0.8488147772826253,10.800166532075403,4.354746530354023,-1.303462266921997,0.2989904880523681,-0.2271164655685424,jumping
1761226630320396800,0.3675473277023062,10.80407113829851,3.2120477370709177,-0.9317458868026732,0.2186309099197387,-0.160911351442337,jumping
1761226630330409700,-0.5385640022404492,10.34265189666748,2.4802742619782685,-0.528711199760437,0.1282913088798523,-0.1684010326862335,jumping
1761226630340423000,-1.5744608555361628,9.699614105126262,3.023167087203264,-0.2020787447690963,-0.1101497709751129,-0.2440308034420013,jumping
1761226630350435800,-1.892899320948124,8.997381781816483,4.391716955354809,-0.0100855166092515,-0.4445562362670898,-0.3635050058364868,jumping
1761226630360448800,-1.9301938633367417,8.775143636748194,5.505194330328703,0.0644763335585594,-0.680219292640686,-0.4604626893997192,jumping
1761226630370462000,-1.6239245591461655,8.888241608139872,5.781965445095301,0.0455303527414798,-0.7133814692497253,-0.5126418471336365,jumping
1761226630380475000,-1.217516060793027,9.2660584374547,5.723785643327236,-0.0777641534805297,-0.6233612895011902,-0.4941062331199646,jumping
1761226630390487800,-0.6960711703315376,9.56451823693812,5.852152495521307,-0.3267119228839874,-0.4552125930786133,-0.4780608713626861,jumping
1761226630400501800,-0.7006918158695101,9.46928734614849,6.102097562682628,-0.6387321352958679,-0.3067285716533661,-0.5094789862632751,jumping
1761226630410515000,-1.0328604082092645,9.09753610048294,5.75285274785757,-0.8535690903663635,-0.0824533849954605,-0.5753118395805359,jumping
1761226630420527900,-1.551495428881794,8.693596987918019,4.257357877008617,-0.8921526670455933,0.0999912545084953,-0.6521794199943542,jumping
1761226630430540800,-2.2084939412362874,8.333263792845607,2.853318470063805,-0.7596041560173035,0.2218157649040222,-0.6865349411964417,jumping
1761226630440554000,-2.2462727600105103,8.086129691451788,2.266526005096733,-0.6280200481414795,0.0355497598648071,-0.6111600399017334,jumping
1761226630450566700,-1.497451411744207,7.741113307976723,3.2745655680432915,-0.601987898349762,-0.3991682827472687,-0.4849334359169006,jumping
1761226630460579800,-0.6640032765500247,6.844324627250432,3.921968861317634,-0.6292011141777039,-0.8314046263694763,-0.3780429661273956,jumping
1761226630470592800,-0.5908271273106336,5.846370404988527,3.2304578385084866,-0.617158830165863,-1.1592938899993896,-0.3105347454547882,jumping
1761226630480606000,-0.696469814260304,4.59992540602684,1.3282955991744994,-0.5016708970069885,-1.33671236038208,-0.2754830121994018,jumping
1761226630490619000,-1.1628158447690309,3.309243790453672,-1.5024007047146557,-0.2116665840148925,-1.2536801099777222,-0.2844164967536926,jumping
1761226630500631800,-1.6396692407667637,1.4172043012052773,-5.032278712171316,0.23089699447155,-0.8487890958786011,-0.3049289584159851,jumping
1761226630510645000,-1.641215447295457,-0.3160135763525962,-7.856895403885841,0.7457023859024048,-0.0785401090979576,-0.273577481508255,jumping
1761226630520658700,-0.949482890690118,-2.132296690610051,-9.15531492023468,1.1536091566085815,0.9372949600219728,-0.1811048090457916,jumping
1761226630530671900,0.3762145086847245,-4.4060909331440925,-8.22350051883459,1.2683558464050293,2.062173843383789,-0.0688088536262512,jumping
1761226630540685000,2.529695587751269,-7.586202732250094,-4.623176517754793,0.9110448956489564,2.6481645107269287,0.051201444119215,jumping
1761226630550697700,5.374311111399531,-11.111136853563783,1.73374686986804,0.0897327661514282,2.0274593830108643,0.2458279579877853,jumping
1761226630560711000,8.863286030581593,-14.851484242361783,8.349960660624504,-0.8862957954406738,0.0572072155773639,0.4282406568527221,jumping
1761226630570723800,10.911513275885582,-18.484511074125766,10.646325046885012,-1.5966068506240845,-2.634507179260254,0.4844881892204284,jumping
1761226630580736800,8.26080236774683,-19.19413818386197,5.82200811714828,-1.8715406656265257,-4.785616874694824,0.4967304766178131,jumping
1761226630590749700,2.6395868720561264,-17.9598944948256,-4.698657875196635,-1.7484796047210691,-5.367766380310059,0.4484893977642059,jumping
1761226630600763000,-3.1943568898186085,-16.884597505164145,-16.197064153814313,-1.1802585124969482,-3.645626783370972,0.3361649811267853,jumping
1761226630610776000,-6.923019393780828,-14.8858061986804,-25.95441323955059,-0.4133325815200805,-0.4684843420982361,0.2072222083806991,jumping
1761226630620788700,-7.068482342204451,-13.085039217984676,-29.523704973506927,0.2440783083438873,2.5116751194000244,0.3016267418861389,jumping
1761226630630802000,-3.942558644881845,-12.311419820809364,-25.587317126214504,0.5898059606552124,4.136886119842529,0.5291511416435242,jumping
1761226630640814800,-1.0823893590752034,-11.529645174229143,-17.227847463488576,0.7492656707763672,4.640144348144531,0.7078614830970764,jumping
1761226630650828800,0.3056423131323419,-11.05581302574873,-9.56664063591957,0.8981459736824036,4.295993804931641,0.6611108779907227,jumping
1761226630660842000,0.4223522827424109,-10.243187313830852,-2.823634402678907,0.9114649295806884,3.0803611278533936,0.5639348030090332,jumping
1761226630670855000,1.65436748207435,-9.09089768538177,3.7837104374453423,0.7395818829536438,1.4357966184616089,0.4828451871871948,jumping
1761226630680867800,2.6782912812426685,-7.402929400870203,7.7288085376769295,0.4648089408874511,0.1503494828939438,0.3913997113704681,jumping
1761226630690880800,2.3574663590855893,-5.066182150816917,7.766051934400201,0.1488615274429321,-0.4660290479660034,0.3117780685424804,jumping
1761226630700894000,1.4224327033780515,-2.4900468834519387,6.168934133636951,-0.1496077328920364,-0.4809779226779938,0.2823533415794372,jumping
1761226630710906600,0.7021092814520001,-0.1907633948743343,4.427598708336055,-0.3388065695762634,-0.187674880027771,0.332767128944397,jumping
1761226630720919800,0.0152494819821789,1.700635458382964,3.088352383819222,-0.3713474571704864,0.2090245336294174,0.4553668200969696,jumping
1761226630730932700,-0.6184449098154902,3.041253948035836,2.3256577007621524,-0.2806423008441925,0.4522826969623565,0.602856457233429,jumping
1761226630740946000,-1.5865623583488166,3.873331963920593,2.599405083793401,-0.0993350744247436,0.4054046869277954,0.6796055436134338,jumping
1761226630750958800,-2.68005098439157,3.9450516307413577,3.2392864571303126,0.1261025816202163,0.0348648764193058,0.6006891131401062,jumping
1761226630760971800,-3.361303355775773,3.931950741627812,3.9042435272738336,0.2992434501647949,-0.4447587132453918,0.4940052628517151,jumping
1761226630770985700,-3.27552856785655,4.644339132770896,4.300102793757617,0.3678139448165893,-0.8569493293762207,0.4057212769985199,jumping
1761226630780999000,-3.014823329488933,5.577484490513801,4.434579945525527,0.2928172051906585,-1.1851623058319092,0.3270211219787597,jumping
1761226630791011800,-2.804301048916578,6.189324010714889,4.203319120568037,0.120674192905426,-1.2754385471343994,0.2207389771938324,jumping
1761226630801025000,-2.964922403505444,6.737139094772934,3.0093001821532845,-0.0856523513793945,-1.0092841386795044,0.0521488972008228,jumping
1761226630811037700,-3.6904946858704086,7.23141197373569,1.4940139846414326,-0.2560505270957947,-0.4478099644184112,-0.196207970380783,jumping
1761226630821051000,-4.320318775573373,7.622368270608782,0.3847521815359592,-0.357602447271347,0.2147147506475448,-0.4760499894618988,jumping
1761226630831063800,-4.3213738375842565,8.18649969869554,0.2853536496728658,-0.4189014136791229,0.733523428440094,-0.7070708870887756,jumping
1761226630841076700,-3.59319575663507,8.951547082358598,1.3618734591275452,-0.4401952624320984,0.9679838418960572,-0.8593373894691467,jumping
1761226630851089700,-2.509015787816048,9.499008530673384,3.118082628433406,-0.4022057950496673,0.9646493196487428,-0.953532338142395,jumping
1761226630861102800,-1.5219197903074324,9.926901350277662,4.650116547128558,-0.331171840429306,0.7823383212089539,-0.9883369207382202,jumping
1761226630871116000,-0.6509735529765487,10.202020606184004,6.171799459940194,-0.3147949874401092,0.465851366519928,-0.9706695675849916,jumping
1761226630881128700,0.1750536019040271,10.303236416602134,7.61735482636094,-0.3699080348014831,0.1344302892684936,-0.8758946061134338,jumping
1761226630891142000,0.7214157472074031,10.287760615050791,8.334524022039771,-0.452618271112442,-0.1408468335866928,-0.7290359139442444,jumping
1761226630901155800,0.6759539727151394,10.12636827608943,8.249841413271426,-0.4517218470573425,-0.3513164818286896,-0.6234967112541199,jumping
1761226630911168800,-0.1209967252848669,9.469077502790093,7.075996955618262,-0.3281948566436767,-0.4394652247428894,-0.5998398661613464,jumping
1761226630921182000,-0.9187883310884236,8.449958327424525,5.621830997240543,-0.1714539676904678,-0.4280472099781036,-0.6527512669563293,jumping
1761226630931195000,-1.5067966015860437,7.720090393692255,4.842540568691492,-0.0985443666577339,-0.3584948182106018,-0.748661994934082,jumping
1761226630941207800,-1.8726127581141887,7.170872457098961,4.780881108114123,-0.1483028680086136,-0.3295473158359527,-0.8450742363929749,jumping
1761226630951220700,-1.781649607771635,6.746086955860257,5.18266567299366,-0.2581957876682281,-0.5476018786430359,-0.9206254482269288,jumping
1761226630961234000,-1.3287959499120712,6.066795363155007,5.181871892267465,-0.2922861278057098,-0.8805121779441833,-0.9763880968093872,jumping
1761226630971246600,-0.8456658847976476,5.264105354318023,3.59630892021954,-0.2157080024480819,-1.1666638851165771,-1.0111967325210571,jumping
1761226630981259800,-0.8360212736178189,4.68276910893023,0.922222981712222,-0.0239204559475183,-1.0871068239212036,-0.9758858680725098,jumping
1761226630991273000,-0.5457726184450089,4.191226531714201,-2.273308212582767,0.2488307207822799,-0.6241701245307922,-0.8448007702827454,jumping
1761226631001286000,0.0471796843260526,3.5784897704124448,-4.569888287420571,0.5077879428863525,-0.034671701490879,-0.7082024216651917,jumping
1761226631011298800,0.4803885113213211,2.1092922471195457,-5.100713950493931,0.6790735721588135,0.4372628629207611,-0.6316142678260803,jumping
1761226631021311700,0.9134490158870816,0.2694078925222158,-4.47394398766458,0.7933205366134644,0.8379958868026733,-0.5803572535514832,jumping
1761226631031325700,1.6551988183319568,-1.3413485574930906,-3.73796750792414,0.8511221408843994,1.113675594329834,-0.4677610695362091,jumping
1761226631041339000,3.128579472528398,-3.117719932600856,-2.778778485125303,0.8682833313941956,1.227387547492981,-0.2568240463733673,jumping
1761226631051351800,4.945375504744052,-5.179668829265236,-1.646102488684654,0.8352602124214172,1.01022207736969,0.0171901118010282,jumping
1761226631061365000,6.075177991575003,-7.4377739197582,0.1027577791631221,0.6718742251396179,0.3553797900676727,0.2307948023080825,jumping
1761226631071377700,5.949046351087093,-9.884653277134896,1.818391776974499,0.3974400162696838,-0.540961742401123,0.3697190880775451,jumping
1761226631081390800,5.560461459520459,-11.626572932064532,1.1855424942314623,0.0795174390077591,-1.18977952003479,0.5252367854118347,jumping
1761226631091403800,4.531575507900119,-11.633617589879035,-2.1975638202905654,-0.1971548348665237,-1.2973415851593018,0.7551790475845337,jumping
1761226631101416700,3.001477817964554,-11.135590911340714,-6.57500324396789,-0.3207159340381622,-0.8822306394577026,0.9601154327392578,jumping
1761226631111430000,1.3623951449140903,-11.461770492398738,-10.450680894231796,-0.2794100046157837,-0.1946369409561157,1.0254844427108765,jumping
1761226631121442800,0.1027886126928031,-12.151693369233609,-12.434099275016784,-0.2039376348257064,0.3485570847988128,0.9516707062721252,jumping
1761226631131456000,-0.1256704527169466,-12.799752788329124,-12.012598202276228,-0.1840098053216934,0.4188484251499176,0.8660596013069153,jumping
1761226631141468700,0.9913956674639136,-13.137131808793544,-10.924375095546244,-0.1023373156785965,0.4021746516227722,0.8460054993629456,jumping
1761226631151481900,2.398996785478294,-12.362429877078531,-11.222207703042027,0.1029179245233535,0.5343359112739563,0.9764974117279052,jumping
1761226631161495800,3.638720951752364,-10.695240176701546,-11.534369280141592,0.3921212553977966,0.6773846745491028,1.2212083339691162,jumping
1761226631171508700,4.217902357193827,-9.104223030900954,-10.502496421664953,0.6750930547714233,0.6919164061546326,1.5000441074371338,jumping
1761226631181522000,3.9722356980040665,-7.600814610448479,-7.939391316264867,0.8773170113563538,0.4851728081703186,1.7544790506362915,jumping
1761226631191534800,3.5483316557750104,-6.5697828789711,-4.651413016679883,0.9540974497795104,0.2560203373432159,1.8823281526565552,jumping
1761226631201547800,2.557355455832184,-6.034603404602408,-1.6408464678525925,0.8624703288078308,0.116012655198574,1.8225396871566768,jumping
1761226631211560700,0.9827435744527728,-5.389123480606079,1.1958379705354572,0.5975735783576965,0.0333564653992652,1.6127830743789673,jumping
1761226631221573600,-0.4211619039140641,-4.649155593141913,3.646518181499839,0.2562290132045746,0.053942434489727,1.28030264377594,jumping
1761226631231586800,-1.7633081876561043,-3.816242295476794,4.956038353055715,-0.0895939171314239,0.2156970351934433,0.7902482748031616,jumping
1761226631241599700,-2.892874235382676,-2.770647785639763,5.74045094692409,-0.4728131890296936,0.343127429485321,0.2495551854372024,jumping
1761226631251612700,-2.9803663486137983,-1.295677524164319,6.794432176834344,-0.8907100558280945,0.3793867528438568,-0.1956551223993301,jumping
1761226631261625900,-2.360791265724599,0.6191010356366634,7.339294840827584,-1.2460676431655884,0.4188412129878998,-0.5034233927726746,jumping
1761226631271638500,-1.6661625492863357,2.665955823543668,7.010198495540022,-1.4962971210479736,0.4639655649662018,-0.6629018187522888,jumping
1761226631281651700,-0.8930731673344969,4.6346699716717,6.3921004994660615,-1.6628680229187012,0.4688047766685486,-0.6463044285774231,jumping
1761226631291666000,-0.0950402453220449,6.236592542368173,5.807079428085684,-1.6859606504440308,0.4022205173969269,-0.5197540521621704,jumping
1761226631301678600,0.0893329918574541,7.11415863623023,4.768815991789102,-1.5030113458633425,0.3656803369522095,-0.4061819314956665,jumping
1761226631311691800,-0.2322809617854654,7.42492379053533,3.5009137787789104,-1.176949143409729,0.3002337217330932,-0.3471771776676178,jumping
1761226631321704700,-0.6645165598344057,7.417695592847466,3.021874124783277,-0.8290231823921204,0.2031202316284179,-0.3234119415283203,jumping
1761226631331717600,-1.002174543370679,7.26473907379806,3.1190982352167365,-0.5261740684509277,0.1140675917267799,-0.330984890460968,jumping
1761226631341730600,-1.1379077596142888,7.145962472248077,3.3768735576123,-0.2914819419384002,0.1193627566099166,-0.322570651769638,jumping
1761226631351743700,-1.036692095326632,7.199035890787839,3.7617145864754913,-0.1715576648712158,0.1662047356367111,-0.2948397397994995,jumping
1761226631361757000,-1.024108946476877,7.303503981000184,4.634451945006847,-0.1805847138166427,0.1630821675062179,-0.2728947699069977,jumping
1761226631371769600,-1.242214375654608,7.175750292268395,5.626822229656577,-0.2722936868667602,0.1143395155668258,-0.2865484654903412,jumping
1761226631381782800,-1.5226042654402554,7.086655127754807,6.151574418035149,-0.3976553380489349,0.0415230989456176,-0.2947477996349334,jumping
1761226631391795700,-1.485167830362916,7.142441312384605,6.157277598112821,-0.4509093165397644,-0.0167583301663398,-0.3107104301452636,jumping
1761226631401808600,-1.494113207232207,7.008261389997601,5.466961338046193,-0.4141507744789123,-0.0004275594837963,-0.3829494714736938,jumping
1761226631411821600,-1.6471341698199509,6.880351633921265,4.657817038503289,-0.3597548007965088,0.0599181205034256,-0.4417127668857574,jumping
1761226631421835800,-1.4139447148874402,6.864038797023892,4.338710756832361,-0.3169442117214203,0.1076773852109909,-0.465470552444458,jumping
1761226631431848700,-1.080934264896065,6.965230057522654,4.355224669259786,-0.3287072479724884,0.0804717019200325,-0.4696147739887237,jumping
1761226631441861600,-0.8378978080794215,6.928975087314844,4.7056566480427975,-0.3915922045707702,-0.095838613808155,-0.4801611602306366,jumping
1761226631451874800,-0.8347669627077877,6.573108808523416,4.766427050825953,-0.4196758568286896,-0.2430202364921569,-0.5232531428337097,jumping
1761226631461887500,-0.97361253881827,6.2385483526110646,3.847658008959889,-0.4017602503299713,-0.2670992016792297,-0.5807587504386902,jumping
1761226631471900700,-0.9662496819000692,6.181048349800705,2.7683506146132943,-0.3908599317073822,-0.2266725152730941,-0.6095398664474487,jumping
1761226631481913900,-0.6712005676429719,6.287562266626954,2.076477772754431,-0.3759150505065918,-0.1361170411109924,-0.591064453125,jumping
1761226631491926800,-0.4047930625131353,6.3865802747398615,1.2177730312287809,-0.3238197267055511,0.0042896126396954,-0.5170896053314209,jumping
1761226631501939700,-0.3181093795880675,6.349397083771229,0.1074199257552623,-0.2218092083930969,0.2273221611976623,-0.3957194685935974,jumping
1761226631511952600,-0.2170480290792882,6.007025661846995,-1.010260746127367,-0.0414977595210075,0.5031713843345642,-0.2565999031066894,jumping
1761226631521965800,-0.0687205580700188,5.2145338064193725,-1.99656310904026,0.256083071231842,0.7326913475990295,-0.1126171723008155,jumping
1761226631531978500,0.0693308719880878,4.156329990378022,-2.440554246008396,0.5663089156150818,0.8378114700317383,0.024267341941595,jumping
1761226631541991700,0.3393478363193571,2.9252906503409144,-1.934862147408724,0.7546820640563965,0.7327466011047363,0.1441948115825653,jumping
1761226631552004900,0.6411638143628835,1.5376333461374043,-0.9228355606526136,0.8128652572631836,0.456460952758789,0.2570137679576874,jumping
1761226631562018600,0.8738223772890865,-0.0790852271527051,-0.3995131128162145,0.8460192084312439,0.1885586529970169,0.3252756297588348,jumping
1761226631572031700,0.908022606924176,-1.7731214334011076,-1.0155027384340762,0.9803724884986876,0.1601157784461975,0.3238460123538971,jumping
1761226631582044700,0.7455078398041427,-3.2194711650699377,-2.434662265360356,1.135526418685913,0.3594725430011749,0.2269708663225174,jumping
1761226631592057600,0.1683286410305648,-4.3368560688763855,-2.6996920889288187,1.0528122186660769,0.521333634853363,0.0564276427030563,jumping
1761226631602070800,-0.2436368338625878,-5.668825972649454,-1.0425959125429392,0.6394241452217102,0.4537037312984466,-0.1632751524448394,jumping
1761226631612083700,-0.4842169105030596,-7.103287698125839,0.6598422113478183,0.0728472843766212,0.3636999130249023,-0.4292665421962738,jumping
1761226631622097000,-0.4261154346682131,-8.337827739760279,0.2999976765751838,-0.4340926110744476,0.5195938944816589,-0.6839526891708374,jumping
1761226631632109600,0.7171801554642617,-8.695911110079289,-1.5022498980671166,-0.7701928615570068,0.6394532918930054,-0.7938594222068787,jumping
1761226631642122800,3.1544778838947414,-7.982395176210999,-2.945894462430477,-0.9111265540122986,0.5613092184066772,-0.631702184677124,jumping
1761226631652135700,5.892381630057096,-6.869247471582889,-3.442232457229495,-1.001107692718506,-0.0622836872935295,-0.2028326690196991,jumping
1761226631662148600,7.441211492991447,-5.890405361548066,-2.67318811288476,-1.1827642917633057,-1.233134388923645,0.3813191950321197,jumping
1761226631672161800,7.62039434018731,-5.8905608443707225,-2.6543384509861467,-1.438606023788452,-2.193042516708374,0.920056402683258,jumping
1761226631682174700,5.686584332180023,-6.030874154946208,-5.398284692183137,-1.624000906944275,-2.447190046310425,1.2970800399780271,jumping
1761226631692188000,2.8621979420900345,-6.261355227702856,-9.762394678688048,-1.5673376321792605,-1.946660280227661,1.4665331840515137,jumping
1761226631702201600,0.6477852783292531,-6.57962798115909,-13.983991798746583,-1.2927902936935425,-0.92512047290802,1.5133919715881348,jumping
1761226631712214800,-0.7346645934242755,-6.696963151729107,-16.209318070709703,-0.9266546964645386,0.3498763144016266,1.47582745552063,jumping
1761226631722227700,-1.484000247888267,-7.137595625919103,-16.085560758137703,-0.5835985541343689,1.5467801094055176,1.4043055772781372,jumping
1761226631732240600,-1.2856218479655683,-7.567675141912698,-13.784064269685745,-0.2545446157455444,2.4842429161071777,1.3030167818069458,jumping
1761226631742253800,-1.0384951992258429,-7.612715476122498,-9.97543537182212,0.0378872528672218,2.8920705318450928,1.107762575149536,jumping
1761226631752266800,-1.2215914204731584,-7.348642514887452,-4.910354460245371,0.3397232890129089,2.7392823696136475,0.8461641669273376,jumping
1761226631762279700,-0.8430149318974465,-6.4615989831060165,0.2572720490485429,0.5980358123779297,2.0888900756835938,0.605828583240509,jumping
1761226631772292600,0.1921668684640899,-4.602433004933595,5.459824910295009,0.5125932693481445,0.6701300740242004,0.4987651705741882,jumping
1761226631782305800,1.955937960924208,-3.041284927695989,11.016508604842423,0.0938460454344749,-1.1710635423660278,0.6105353832244873,jumping
1761226631792318700,3.3771967982172963,-2.077886470508575,13.78621764832735,-0.3408776819705963,-2.7018041610717773,0.7406750917434692,jumping
1761226631802331600,2.25173321737349,-1.2695704384833573,12.141118199205398,-0.6943641304969788,-3.669275283813477,0.7382616996765137,jumping
1761226631812344800,-0.5860821247406304,-0.9598977555900812,8.233934819087386,-1.146384596824646,-3.2754626274108887,0.7098403573036194,jumping
1761226631822357800,-7.005880632340908,-0.4328396283566951,-2.3660469942957163,-1.6537595987319946,0.0158423241227865,0.3598629236221313,jumping
1761226631832371700,-12.676190706068276,-1.7113374696612358,-7.988495831173658,-1.988351345062256,0.2090289890766143,-0.5223355889320374,jumping
1761226631842385000,-9.151182350474595,-1.6009896737605331,3.30245924488008,-1.8631870746612549,0.6936044692993164,-1.0564281940460205,jumping
1761226631852397600,-4.444451643459499,0.93686700861454,-0.7995628167271613,-1.6004914045333862,1.522600531578064,-1.08995258808136,jumping
1761226631862410800,-2.5037328789770603,3.5549154180794957,-3.94223131262362,-1.2035653591156006,1.6949530839920044,-0.9323105216026306,jumping
1761226631872423700,-0.4625170468050986,4.183649374458193,-1.9424796366751196,-0.4311364889144897,1.430708408355713,-0.8018316030502319,jumping
1761226631882436900,0.5866170353349298,4.479377703151107,-0.0619464608252048,0.1240335032343864,0.7601014971733093,-0.5744847655296326,jumping
1761226631892449500,1.2254712575811892,4.796748539331555,3.1899013717144724,0.3908277451992035,0.2223070710897445,-0.327249675989151,jumping
1761226631902462700,1.7673979411877692,5.630868290176988,4.968652335435152,0.4505107998847961,-0.064715102314949,-0.1515055298805236,jumping
1761226631912475600,1.349297324540466,5.496618809685111,5.818139751282334,0.3685515522956848,-0.266043484210968,-0.076607622206211,jumping
1761226631922488600,1.3701641714803874,5.958949905464053,7.283420977914333,0.1147821396589279,-0.6877846121788025,-0.0306699611246585,jumping
1761226631932501800,1.1053578544694929,6.009417525419592,9.74864613932073,-0.1816738545894622,-1.289152979850769,0.0363834127783775,jumping
1761226631942514700,0.6562587999030948,5.711951997670531,10.44461121892929,-0.3609309494495392,-1.5976884365081787,0.0672457218170166,jumping
1761226631952528000,0.4433076847486197,5.747119757163524,8.905220799991488,-0.4486995935440063,-1.7286982536315918,0.0715251192450523,jumping
1761226631962540500,-0.0451972463711397,5.32589633232057,8.063248582080005,-0.5885501503944397,-1.4674758911132812,0.1342018097639084,jumping
1761226631972554800,-0.127792321975436,4.761421789884567,7.756482726544141,-0.8543719053268433,-1.1229090690612793,0.0345785692334175,jumping
1761226631982567700,-0.8639652193371206,4.513942820575833,7.672766916981339,-1.139897704124451,-0.8858569264411926,-0.2162003964185714,jumping
1761226631992580600,-1.2104340666428208,4.38744526938498,6.913207024818658,-1.2347410917282104,-0.7555351257324219,-0.4459587335586548,jumping
1761226632002593800,-1.492846986688673,4.77137561314404,5.7941842906773084,-1.2445248365402222,-0.82230544090271,-0.5801072716712952,jumping
1761226632012606700,-1.7967191666096447,5.416066432589292,5.6638926079005,-1.3060824871063232,-0.9206488132476808,-0.7250080108642578,jumping
1761226632022619600,-2.2019896739088,5.720204277709126,5.704688144147395,-1.3318743705749512,-1.0691492557525637,-0.8191928267478943,jumping
1761226632032632600,-1.9700874823078511,5.81810994066596,5.523769266939163,-1.2683830261230469,-1.1424940824508667,-0.71751469373703,jumping
1761226632042645800,-0.8800937126435339,5.966701834765076,4.11599388833642,-1.0718283653259275,-1.115800380706787,-0.5232378840446472,jumping
1761226632052658700,-0.2832434891184792,5.920542141136527,2.7177263427913187,-0.8389695286750793,-0.6522122025489807,-0.334200769662857,jumping
1761226632062671600,-0.3780607941385358,5.551478527119755,1.0352981567502022,-0.6928725242614746,0.0396102033555507,-0.2660707235336303,jumping
1761226632072684800,-1.075424853824824,5.132694896644353,0.6535106702387332,-0.6534814238548279,0.3309860825538635,-0.2283234000205993,jumping
1761226632082697700,-0.9981529597043992,4.039026383990049,1.3446353240787985,-0.3385575711727142,0.477023184299469,-0.2333767414093017,jumping
1761226632092710700,-1.084556693176925,3.005043401491642,0.2788917601823806,0.094045877456665,0.6427782773971558,-0.2861603498458862,jumping
1761226632102723600,-0.9628107204273344,2.6000796220541,-1.1083528715670108,0.3188441097736358,0.6640023589134216,-0.2314345091581344,jumping
1761226632112737500,0.1828377529742196,2.2054788311988114,-1.6497680254548788,0.3427731394767761,0.4857597649097442,-0.0748187378048896,jumping
1761226632122750700,0.6987170817304402,0.2614373520344495,-1.8979279627650976,0.3040081560611725,0.47539022564888,0.0412002727389335,jumping
1761226632132763600,-0.1601265933418646,-2.6229735909074545,-2.228299734815955,0.2174730151891708,0.6737556457519531,0.0292700510472059,jumping
1761226632142776800,-1.3855639851860702,-4.353540661695599,-2.683188697895408,0.1254618614912033,0.8305793404579163,-0.0783397629857063,jumping
1761226632152789500,-1.7430591803535818,-4.867997666031122,-3.607774317085743,0.1108948066830635,0.9140665531158448,-0.2783029079437256,jumping
1761226632162802700,-1.5696362118586895,-5.496531715923547,-4.517200361067056,0.0910731628537178,0.8899050354957581,-0.447395771741867,jumping
1761226632172816000,-0.8784776557490229,-5.561030199319124,-4.86686369356513,-0.0655109509825706,0.7674304246902466,-0.5048701763153076,jumping
1761226632182828500,0.1143017576908692,-5.13736405749917,-4.682118536067009,-0.4642410278320312,0.4669073820114136,-0.5043801665306091,jumping
1761226632192841700,0.9088784931011498,-4.549804992073774,-3.2279215980291363,-1.1591533422470093,0.4436409175395965,-0.4530209898948669,jumping
1761226632202854700,1.6331822168350218,-3.539720187035203,-2.921675966975093,-1.8250319957733157,0.6073542237281799,-0.2386290729045868,jumping
1761226632212867800,3.6797529271036384,-1.7745809845596552,-4.591816918373108,-2.219724178314209,0.4457384943962097,0.0686856433749198,jumping
1761226632222880300,4.73893201791793,-1.2394354124605655,-6.726595488926768,-2.387551069259644,0.3525659441947937,0.3631444573402405,jumping
1761226632232893400,3.897753872993588,-1.4903613073527813,-9.400009811782835,-2.4018030166625977,0.3318883180618286,0.4159594476222992,jumping
1761226632242906400,1.2004508711583912,-2.7851322380661965,-9.228432763415574,-2.073839902877808,-0.0914554893970489,0.339239090681076,jumping
1761226632252920300,-0.4643255575317889,-3.6278725177407263,-9.12985665385127,-1.4132750034332275,-0.2737655639648437,0.2376716583967209,jumping
1761226632262933200,-0.4067265147937461,-4.604223395481705,-9.791351308581232,-0.614888608455658,-0.1562391966581344,0.1935707777738571,jumping
1761226632272946400,0.3014283304328098,-5.667312645477057,-9.974877737939355,-0.1012747883796691,0.123170793056488,0.1525983661413192,jumping
1761226632282959400,0.4029031205806881,-6.4885612243115895,-8.155034885373711,-0.0223365686833858,0.3364945352077484,0.0831242203712463,jumping
1761226632292972300,-0.1412719995398074,-6.303780410978198,-5.034188345184922,-0.2213680893182754,0.4912268817424774,0.0393722280859947,jumping
1761226632302985500,-0.2325889682887122,-5.599185450190306,-3.078839290064573,-0.4882764816284179,0.6449407935142517,0.0030666862148791,jumping
1761226632312998400,-0.221488934136182,-5.118325595030188,-2.624448339635133,-0.5016069412231445,0.938950538635254,-0.0494162589311599,jumping
1761226632323011300,-0.2861429734196514,-4.674440841045976,-3.1669454435408118,-0.5408619046211243,0.8583403825759888,-0.1799013018608093,jumping
1761226632333024300,-0.1693088842395693,-4.1008331440836185,-2.694077171656489,-0.6721147298812866,0.3587053716182709,-0.3032644391059875,jumping
1761226632343037400,0.3569021246451884,-2.562408355307579,-2.1949194432616235,-0.7605303525924683,-0.1950417160987854,-0.3495315313339233,jumping
1761226632353050400,0.4276093264877796,-1.4364502689450978,-2.062970640927553,-0.8375044465065002,-0.4791269302368164,-0.3939365446567535,jumping
1761226632363063300,0.0418614849779754,-0.8992021716088056,-2.337483163112402,-0.8738358020782471,-0.5813822150230408,-0.4127365946769714,jumping
1761226632373076500,0.0549569672640413,-0.0504623592585325,-2.618178173324466,-0.7624300122261047,-0.5774446725845337,-0.3678379654884338,jumping
1761226632383089400,0.330265535197407,0.6724339818954468,-2.723715938594937,-0.4992425739765167,-0.5007717609405518,-0.3000833988189697,jumping
1761226632393103400,0.6093761988274753,1.465932091756165,-2.199369408407807,-0.2654576897621155,-0.6422502398490906,-0.2587378025054931,jumping
