timestamp,acc_x,acc_y,acc_z,gyr_x,gyr_y,gyr_z,activity
1761225777347156200,-0.3446925583481788,-0.0435381129533052,0.5376186842143535,-0.1208999305963516,-0.1302687525749206,-0.0880414992570877,walking
1761225777357169200,-0.1356531458778772,-0.0988531729400157,0.6505161645978689,-0.1575823128223419,-0.1589145064353943,-0.0784985944628715,walking
1761225777367183000,0.0062384822559717,-0.1527776553511619,0.6931038449585437,-0.1886148005723953,-0.1929675489664077,-0.0821220949292182,walking
1761225777377196300,-0.0363656914401333,-0.1507902809262275,0.7121347086429596,-0.2258386462926864,-0.2288734912872314,-0.090789295732975,walking
1761225777387210200,-0.1295697617104277,-0.1173836858868598,0.639572161257267,-0.2753114104270935,-0.2308239936828613,-0.1091552525758743,walking
1761225777397223200,-0.2933666958617977,-0.1291132866472005,0.418466235089302,-0.2968184053897857,-0.1707975715398788,-0.1038503646850586,walking
1761225777407236400,-0.2864673282695003,-0.067852469998598,0.0765308664947748,-0.2691476345062256,-0.1278908401727676,-0.097110703587532,walking
1761225777417250000,-0.1991313554481603,0.0108072252184152,-0.1465963363677263,-0.2207377552986145,-0.1078502684831619,-0.1036761328577995,walking
1761225777427263200,-0.2152316455733962,0.017855390164256,-0.1851753656089305,-0.1706937551498413,-0.0954756289720535,-0.1153719425201416,walking
1761225777437277400,-0.2319405691162682,-0.0177320560455322,-0.1082587146669626,-0.1289380192756652,-0.1006057634949684,-0.1030313372611999,walking
1761225777447290000,-0.1652294511725194,-0.0360310983240604,0.0915396350562572,-0.0989367067813873,-0.1587332487106323,-0.0885685086250305,walking
1761225777457304300,-0.0662549214417347,-0.1680745932042598,0.3749082483917474,-0.0803696364164352,-0.2546951174736023,-0.0808621868491172,walking
1761225777467317200,-0.0479056605130434,-0.2622761409461498,0.6559644931316375,-0.109715536236763,-0.3766721487045288,-0.0993123054504394,walking
1761225777477331200,-0.3136450571229681,-0.4425853618234395,0.8638561329394578,-0.1867233514785766,-0.4376214742660522,-0.133468821644783,walking
1761225777487344400,-0.7415302414100616,-0.5465840809583664,0.790503311958909,-0.2249791175127029,-0.4282055795192718,-0.163166269659996,walking
1761225777497357000,-0.912991042986512,-0.3413052539974451,0.4586234734326601,-0.2156783193349838,-0.419339656829834,-0.2094607353210449,walking
1761225777507371300,-1.0214205841757356,-0.0472884053975343,0.2142167511761188,-0.1911918818950653,-0.4032802581787109,-0.2861286103725433,walking
1761225777517384200,-1.213209376575053,0.172052264663577,0.0575900191813707,-0.1698617935180664,-0.2987928092479706,-0.3588490486145019,walking
1761225777527398400,-1.2009753334239124,0.241398772612214,-0.2010007112503051,-0.1518116891384124,-0.1021905243396759,-0.3912077844142914,walking
1761225777537411000,-0.95923753811568,0.4144786267578602,-0.3866483705461025,-0.1407355815172195,0.1131758093833923,-0.3783706724643707,walking
1761225777547424800,-0.6597055793561041,0.5638625480175018,-0.2273170557677745,-0.1320099979639053,0.2645219266414642,-0.3449794054031372,walking
1761225777557438000,-0.41314080228284,0.509516040802002,0.2138923415273428,-0.1553135067224502,0.2909438014030456,-0.3235534727573395,walking
1761225777567451000,-0.2353307778101414,0.2408633505612611,0.8305833934128284,-0.2058437913656234,0.2436327338218689,-0.2975341379642486,walking
1761225777577464800,-0.1156663879744242,-0.075599723124504,1.2949006945729256,-0.2956704795360565,0.1596703678369522,-0.2751766145229339,walking
1761225777587478000,-0.0489133123187813,-0.375209277164936,1.6034434966534374,-0.3847202062606811,-0.0157901495695114,-0.2664217352867126,walking
1761225777597492000,0.1040965260867495,-0.5718056159764527,1.747984654057026,-0.4578476846218109,-0.2733670771121979,-0.2654994130134582,walking
1761225777607505000,0.2394036167396232,-0.6317424905449152,1.663514811256528,-0.5227630138397217,-0.4718383550643921,-0.2481409311294555,walking
1761225777617518800,0.2581933286119252,-0.5635562585473061,1.2673562695652243,-0.586937665939331,-0.5476452708244324,-0.1988719254732132,walking
1761225777627531800,0.1789300232122652,-0.4757745147198438,0.7187947510540484,-0.646869421005249,-0.5287682414054871,-0.1334231495857238,walking
1761225777637545000,0.1442980602295603,-0.3855243349522352,0.1477642111033201,-0.6750446557998657,-0.4588795900344848,-0.0592381879687309,walking
1761225777647559000,0.1147993136831559,-0.2879360673815012,-0.3337719358831644,-0.665840208530426,-0.3655046224594116,0.0248639024794101,walking
1761225777657571800,0.0679898143763653,-0.2234995433062314,-0.79779346896708,-0.5994731187820435,-0.25195974111557,0.1154213771224021,walking
1761225777667585800,-0.000226666629035,-0.2175777520418167,-1.2453805846005677,-0.4732272624969482,-0.1320820897817611,0.1979013383388519,walking
1761225777677599000,-0.0942885045061353,-0.3085433866024017,-1.5391916814953088,-0.3138680160045624,-0.0579057931900024,0.2504342198371887,walking
1761225777687612700,-0.2132463352413847,-0.5342185203820466,-1.4987398441195487,-0.1459836661815643,-0.0260208304971456,0.2803316712379455,walking
1761225777697625900,-0.3302029182899743,-0.7276198625445366,-1.2880559432446956,0.0038797338493168,-0.0076198149472475,0.291049063205719,walking
1761225777707639000,-0.4428311898106709,-0.929936917090416,-0.9945283394664526,0.0990544483065605,0.0080725960433483,0.261579304933548,walking
1761225777717652700,-0.610188830384612,-1.2401461910784244,-0.6763356655091047,0.158547893166542,0.0128824859857559,0.1951027065515518,walking
1761225777727666000,-0.795951421296969,-1.4625889188081025,-0.3121750211030245,0.1802198886871338,-0.0089849960058927,0.0982765704393386,walking
1761225777737680000,-0.9134681589789688,-1.5033745181828737,0.0416167895019054,0.1827171444892883,-0.0471419468522071,-0.0190950147807598,walking
1761225777747692800,-0.9976042397804558,-1.4748065953463314,0.3026619273483753,0.1609647125005722,-0.0619922652840614,-0.1277115046977996,walking
1761225777757707000,-1.0509691155474632,-1.274770929735899,0.3959364233732223,0.1127657443284988,-0.0530874542891979,-0.2264535278081894,walking
1761225777767720000,-1.1225938706263898,-1.0395219119250774,0.4603086500406265,0.0572934336960315,-0.0280923545360565,-0.2986574172973633,walking
1761225777777732900,-1.086146081260219,-0.6503501603811979,0.4457750977754592,0.016036307439208,0.0300355963408947,-0.3369016349315643,walking
1761225777787746800,-1.0719239330317825,-0.3248269974052906,0.193757315993309,0.0188126526772975,0.1543519496917724,-0.3620349466800689,walking
1761225777797759700,-1.069334866386652,-0.0559773232877254,-0.1252811611384153,0.0414989553391933,0.3236176967620849,-0.3850496709346771,walking
1761225777807774000,-1.0548037252742797,0.1871025342792272,-0.212931387540698,0.0678013935685157,0.4838848710060119,-0.4002698957920074,walking
1761225777817787000,-0.9667394381783904,0.3593172960281371,-0.0219143101662397,0.0876158401370048,0.6412782669067383,-0.3877596259117126,walking
1761225777827801000,-0.6630207683186977,0.3983762177407741,0.2995791589021682,0.0758436024188995,0.7451460957527161,-0.3501645922660827,walking
1761225777837813800,-0.3379717987257987,0.2503150695174932,0.7598293567538261,0.0361415296792984,0.8030837178230286,-0.2943187952041626,walking
1761225777847827000,-0.0274079574127681,0.120606155064702,1.15859778868258,0.0105192605406045,0.7768625020980835,-0.2494456171989441,walking
1761225777857841000,0.1684186208689585,0.0248164613485336,1.4678198051989078,0.0125259524211287,0.6993618607521057,-0.2359609603881836,walking
1761225777867853800,0.1930366735685616,0.014030278918147,1.6594307568132876,-0.009392661973834,0.5248212218284607,-0.2558188140392303,walking
1761225777877868000,0.3330163317428901,-0.2342003855407237,1.9341057760834688,-0.0494238063693046,0.3112287819385528,-0.2734046876430511,walking
1761225777887880700,0.3949335299409925,-0.307634455063939,2.0485405490368604,-0.130710944533348,0.088956817984581,-0.2318497598171234,walking
1761225777897895000,0.6115646487824619,-0.1576151585102081,2.078112680479884,-0.2221720069646835,-0.1105851680040359,-0.1053182035684585,walking
1761225777907907800,0.7877296094618738,0.0820072520792484,1.798943272399902,-0.299371987581253,-0.2768002450466156,0.050608541816473,walking
1761225777917920800,0.84749594976902,0.1806523352265358,1.254992462554574,-0.3249896764755249,-0.3952423632144928,0.1866549849510193,walking
1761225777927935000,0.666801236705482,0.1950023476183414,0.5193944607377052,-0.3054069280624389,-0.4200923442840576,0.284300297498703,walking
1761225777937948000,0.2272055947499349,0.1705710861951112,-0.3070049249887466,-0.2327832877635955,-0.3394577205181122,0.3531873524188995,walking
1761225777947961900,-0.2155864320941269,0.1821411124795675,-0.9650935706675052,-0.1225230917334556,-0.2022018879652023,0.4166054725646972,walking
1761225777957974800,-0.4952010997235774,0.1601695191681384,-1.378515381848812,0.0249799694865942,-0.0591583997011184,0.4717103838920593,walking
1761225777967989000,-0.6741071758046746,0.0283867210507392,-1.5077783060997725,0.1908347159624099,0.0712480768561363,0.4989220201969147,walking
1761225777978002000,-0.9336606868539004,-0.2127156989634037,-1.3346610425531864,0.3414416909217834,0.1640411764383316,0.4790482819080353,walking
1761225777988014800,-1.1019343097615986,-0.6024187809050083,-0.9239408915460108,0.4691938161849975,0.2007422000169754,0.4225104451179504,walking
1761225777998028800,-1.0667177426908163,-1.0175497340917588,-0.3997147728681564,0.5523666739463806,0.1978661119937896,0.351869523525238,walking
1761225778008042000,-0.913851166947186,-1.3852899905502796,0.1103390280723571,0.5731920599937439,0.2020342200994491,0.2666781842708587,walking
1761225778018056000,-0.7443168764539062,-1.6929174313515425,0.5680103153467178,0.5287485718727112,0.2452046573162078,0.1903909891843795,walking
1761225778028068900,-0.6018278292745352,-1.8883458954274648,1.0053478396445512,0.4186639189720154,0.2748653590679168,0.1241967976093292,walking
1761225778038082800,-0.4145227581605315,-1.9974013134300708,1.5407172836273908,0.2596562802791595,0.2115546315908432,0.0753101259469986,walking
1761225778048096000,-0.1723138382092118,-2.060953455886245,2.0504887604951856,0.0762454494833946,0.031502828001976,0.0351227559149265,walking
1761225778058109000,0.065239657151699,-2.089481631234288,2.2214035455614325,-0.0970044732093811,-0.1768909990787506,-0.001818286255002,walking
1761225778068123000,0.176368794422131,-1.9101140751212835,1.88501821230948,-0.2284831255674362,-0.3201477527618408,-0.0173301342874765,walking
1761225778078136000,0.1046703165198676,-1.416654850628972,1.1291057367384434,-0.3130037188529968,-0.3632270097732544,-0.0052826697938144,walking
1761225778088149800,-0.0917355686203111,-0.8457306936621666,0.2632166366666555,-0.3407581150531769,-0.3439230918884277,0.0266385115683078,walking
1761225778098163000,-0.1814601079454645,-0.3205424519538879,-0.5580290195584297,-0.3267534673213959,-0.2506152093410492,0.0549439899623394,walking
1761225778108177000,-0.3086135292291641,-0.0145510879218578,-1.2192688227444886,-0.2756394147872925,-0.0878060460090637,0.0842805728316307,walking
1761225778118189800,-0.3094547292936593,0.1705506279289722,-1.706987457758188,-0.1897266507148742,0.1135872527956962,0.1203735992312431,walking
1761225778128203000,-0.2096262633143924,0.2992757920414209,-2.006961168935895,-0.0862825363874435,0.3068520426750183,0.1618467420339584,walking
1761225778138217000,-0.1245717433605808,0.3712210843116045,-1.959009331193566,0.0128858480602502,0.4353956580162048,0.19307741522789,walking
1761225778148230000,-0.0913005290707573,0.3177016755700111,-1.5980384227395057,0.1002292782068252,0.4829000830650329,0.2000090777873993,walking
1761225778158243800,-0.1093259968386031,0.1665910766482353,-1.0959048934042452,0.1703288108110427,0.4424938261508941,0.1716044247150421,walking
1761225778168256800,-0.1495881203285418,-0.0481903226733207,-0.6099217038810253,0.2162459641695022,0.3353599011898041,0.1136513873934745,walking
1761225778178270700,-0.1138324414123781,-0.109024438342452,-0.2306342174917459,0.2564924955368042,0.2274664342403412,0.074227437376976,walking
1761225778188284000,0.0348748957599513,0.123560328695178,-0.0710626642167568,0.2776148319244385,0.1574029326438903,0.0665708482265472,walking
1761225778198296800,0.2164722384853288,0.3869377088814973,-0.0318622882068157,0.2946231663227081,0.1383296549320221,0.0824712887406349,walking
1761225778208310800,0.3508111873589455,0.5986988835990429,-0.0470493359446525,0.3005864918231964,0.1683003306388855,0.1207172125577926,walking
1761225778218324000,0.3869218537252396,0.8564981713920831,-0.1266366674005985,0.3127521276473999,0.2675717771053314,0.1493836939334869,walking
1761225778228337700,0.3366836586114018,0.9663555534273386,-0.1457026023983955,0.3116868436336517,0.4022339880466461,0.1692871004343032,walking
1761225778238350800,0.3472923655830323,0.9621779754817484,-0.0282312382280826,0.2983926236629486,0.517356276512146,0.1685253679752349,walking
1761225778248364800,0.2604344768685288,0.8013754191070794,0.2892255226701498,0.2551130652427673,0.5871337652206421,0.1489636600017547,walking
1761225778258377700,0.2604267502197995,0.5876221937894821,0.7795078706920147,0.1924117505550384,0.5781639814376831,0.1166665628552436,walking
1761225778268391000,0.4090782290190458,0.3376251041799784,1.223050679370761,0.1138282567262649,0.498692125082016,0.0734514445066452,walking
1761225778278404900,0.5682163227802142,0.1352156951755285,1.5603075347602366,0.0343743972480297,0.3941927850246429,0.0487831942737102,walking
1761225778288417800,0.8076352101542055,0.0722515817403793,1.568574427846074,-0.025863379240036,0.333897203207016,0.0561327189207077,walking
1761225778298432000,1.0470875248737632,0.1259726505339145,1.3588859677493572,-0.0555992126464843,0.2711921036243438,0.0744035467505455,walking
1761225778308445000,1.1827797515198588,0.1540893224716186,1.0974807644188402,-0.0595819726586341,0.2128635495901107,0.0927740335464477,walking
1761225778318459000,1.1822691716492175,0.207032392629981,0.7963426856368779,-0.0418740510940551,0.1543735414743423,0.0998815819621086,walking
1761225778328471800,1.12095253316015,0.282621009838581,0.6428408076643943,-0.0419909618794918,0.0586597956717014,0.0944021269679069,walking
1761225778338484700,1.084053419829905,0.2726367914408445,0.6177829387754201,-0.0583189129829406,-0.0577823407948017,0.0807676687836647,walking
1761225778348499000,1.0426794991731645,0.2163490870296955,0.5069470670968294,-0.0898933559656143,-0.1394500285387039,0.0749787539243698,walking
1761225778358511900,0.9621315059915184,0.2040238584637641,0.2452794134378433,-0.1410577595233917,-0.1611112505197525,0.0780685245990753,walking
1761225778368526000,0.7947435068119317,0.2154237888783216,-0.0637356823295354,-0.1946927607059478,-0.1180074587464332,0.0802435278892517,walking
1761225778378538800,0.5972132846837863,0.2677075183451176,-0.4011877680301666,-0.2398198843002319,-0.0188325755298137,0.0648176595568656,walking
1761225778388552000,0.4153644696816801,0.3129284698188305,-0.6537614301294088,-0.2815811932086944,0.1128386333584785,0.0505681484937667,walking
1761225778398566000,0.3891104498106986,0.3394435517787933,-0.8054273248463869,-0.302212655544281,0.2343926876783371,0.0490009374916553,walking
1761225778408578800,0.4471749911686405,0.3853501474291086,-0.9696440735787152,-0.2852824032306671,0.3614113330841064,0.0627564266324043,walking
1761225778418593000,0.5183667616577818,0.4686527000159025,-1.0962719731509685,-0.2411384135484695,0.4558402001857757,0.0715444833040237,walking
1761225778428605700,0.616377894283086,0.5271124877691269,-1.020038628298044,-0.1666018664836883,0.4950541853904724,0.0983923375606536,walking
1761225778438620000,0.7766177752736956,0.6021341187447309,-0.8684569047331809,-0.0712220594286918,0.4914348721504211,0.1515867412090301,walking
1761225778448632800,0.9524090072698892,0.6139753631860018,-0.6338748263984918,0.0246852915734052,0.4336861073970794,0.2008757293224334,walking
1761225778458645800,0.9971323844850064,0.489571569404006,-0.3070025869011878,0.1064522862434387,0.3375263512134552,0.2407748848199844,walking
1761225778468660000,0.9497542549774052,0.3122422411203384,0.0690063162088394,0.1738267987966537,0.2212697863578796,0.2789452075958252,walking
1761225778478673000,0.924777926892042,0.2034434282273054,0.3580208264768123,0.2172141522169113,0.0974791049957275,0.3004685044288635,walking
1761225778488686800,0.8449161624088883,0.0740653531640768,0.5966372748941182,0.2316088080406189,-0.0196765437722206,0.3193678855895996,walking
1761225778498699800,0.8173354239787906,0.0121755909621715,0.7179717442333697,0.2200755327939987,-0.0898963883519172,0.3364413976669311,walking
1761225778508714000,0.73378656848073,0.0014636428117752,0.7438005974948406,0.1925155520439148,-0.1049536317586898,0.362081229686737,walking
1761225778518727000,0.5857853702837601,0.0153869542241096,0.7258674659192562,0.1292255818843841,-0.0833823829889297,0.37794229388237,walking
1761225778528739800,0.3671418156413361,-0.0637035336256027,0.744685563635826,0.0623125880956649,-0.051672127097845,0.3795308470726013,walking
1761225778538754300,0.2093824263548478,-0.1592442210167646,0.7446224352717399,-0.0028859949670732,-0.020217165350914,0.3701948523521423,walking
1761225778548767000,0.1005203754998743,-0.2410959902733564,0.7420639829605817,-0.0539768747985363,-0.0135824335739016,0.356994092464447,walking
1761225778558781200,0.0197672151349484,-0.3600514555215835,0.6360170991241931,-0.0782372653484344,-0.0090228943154215,0.329088807106018,walking
1761225778568794000,-0.1060575878934934,-0.4112684325397014,0.4360620975345373,-0.0626750811934471,0.0006529022939503,0.278654932975769,walking
1761225778578808000,-0.257358375625126,-0.3868196354597806,0.2822252885192632,-0.0260204840451478,-0.0008083884604275,0.2211596518754959,walking
1761225778588821200,-0.3416465417157858,-0.3220826671332121,0.2468640522807836,-0.0003497411962598,-0.0294898357242345,0.1564512401819229,walking
1761225778598834000,-0.355217970950529,-0.3003565730154514,0.3532622337728738,0.0167265404015779,-0.0849728062748909,0.1014870256185531,walking
1761225778608848100,-0.2771506521360948,-0.3504460073083639,0.4160223490685224,0.0231519490480422,-0.1196192055940628,0.0571043826639652,walking
1761225778618861300,-0.110430834541656,-0.3106289607048034,0.3695838384985923,0.0258995797485113,-0.1393472850322723,0.038078423589468,walking
1761225778628875000,0.0323761925457045,-0.200557059136033,0.3358066565811634,0.0291662123054265,-0.1424501240253448,0.0343225672841072,walking
1761225778638888200,0.1342355067654512,-0.0798971280574798,0.235870949101448,0.0275556277483701,-0.1180537194013595,0.0379010364413261,walking
1761225778648902100,0.2024265245360322,-0.0029962592065334,0.2158516589015722,0.0264323055744171,-0.0966336503624916,0.0459264740347862,walking
1761225778658915000,0.2720228242609649,0.0073240592777729,0.3085749507844448,0.0166383441537618,-0.1052889078855514,0.0540121309459209,walking
1761225778668928300,0.3477957850605249,-0.0302922624111175,0.5118827699333429,0.004671431146562,-0.1552229076623916,0.051787856966257,walking
1761225778678942200,0.4219557577054947,-0.1211871698230504,0.697612846815586,-0.0166157484054565,-0.2328245043754577,0.0563040450215339,walking
1761225778688955100,0.4667141331687569,-0.1570119319200515,0.8157488123744726,-0.0417796894907951,-0.3272053301334381,0.0603706948459148,walking
1761225778698969000,0.4772157265041023,-0.1846013651132583,0.7924386639356613,-0.0621323436498642,-0.3806542158126831,0.0677222460508346,walking
1761225778708982300,0.4864403952388093,-0.1870101798206567,0.5868722522050142,-0.0757301747798919,-0.4048945605754852,0.0783546492457389,walking
1761225778718996000,0.4424794172309338,-0.1697609388560056,0.3662362816363573,-0.0701745897531509,-0.4214881360530853,0.0837311968207359,walking
1761225778729009200,0.3794520293012261,-0.1518167013645172,0.0721539665848016,-0.0424484238028526,-0.3841777741909027,0.0872929096221923,walking
1761225778739022000,0.2751227813039906,-0.1345271283894777,-0.2748310866147279,-0.006443771533668,-0.3317807018756866,0.0776925384998321,walking
1761225778749036000,0.1667516923037357,-0.1462362708836793,-0.384109207457304,0.0309238396584987,-0.3219698667526245,0.0625884160399437,walking
1761225778759049200,0.1644942504994571,-0.1796294219195842,-0.2527472651004791,0.0581521838903427,-0.3651216328144073,0.0555288754403591,walking
1761225778769063200,0.2567016835483722,-0.2639443664193153,-0.1011713867545127,0.0934366732835769,-0.4278449416160583,0.0599079132080078,walking
1761225778779076000,0.3397139662180096,-0.3888333133697509,-0.1914887865394353,0.1458145380020141,-0.4248807430267334,0.0607131607830524,walking
1761225778789089300,0.2912692121258937,-0.4639110584467649,-0.3652583765149116,0.1898839920759201,-0.383657157421112,0.05191221088171,walking
1761225778799103000,0.1513453757920302,-0.5080325242459773,-0.3485959955275058,0.2151706367731094,-0.3521804809570312,0.0306608974933624,walking
1761225778809116200,0.0975673709131777,-0.611145692718029,-0.0789911191284656,0.2206338495016098,-0.3715344667434692,0.0096365725621581,walking
1761225778819130000,0.156183792266529,-0.6850257524430752,0.2852548654735088,0.1944191008806228,-0.4150063395500183,0.0051424703560769,walking
1761225778829143000,0.2782678926629945,-0.7894552642107009,0.572933743223548,0.1507816165685653,-0.4708951711654663,-0.0098202330991625,walking
1761225778839157000,0.3015511165622621,-0.9026052580505608,0.689998280158639,0.0992918908596038,-0.5153153538703918,-0.041343554854393,walking
1761225778849170200,0.1792161284109577,-0.972138228482008,0.6125660809099673,0.0653307288885116,-0.5223162770271301,-0.0842588022351265,walking
1761225778859183000,0.0156005239095538,-0.9285720584779976,0.4071966530561446,0.0386873632669448,-0.501941978931427,-0.1356392651796341,walking
1761225778869197000,-0.1449797680165618,-0.8055956671506166,0.261988556176424,0.014435552060604,-0.4865108430385589,-0.1832206398248672,walking
1761225778879210200,-0.1910426867397502,-0.7102665766835212,0.2226397116065025,-0.011733803898096,-0.4836205244064331,-0.2246999889612198,walking
1761225778889224000,-0.1955745214831084,-0.6282827054798603,0.2242588372409343,-0.0408844985067844,-0.4831582009792328,-0.267363578081131,walking
1761225778899237000,-0.1960769545799121,-0.5163227982074022,0.2013186911582946,-0.0743154734373092,-0.4859807193279266,-0.3035215139389038,walking
1761225778909251300,-0.1653855367833748,-0.4544131622612476,0.1833709465354681,-0.1131960228085517,-0.4914942681789398,-0.3345715701580047,walking
1761225778919264000,-0.1544076677057892,-0.3546785303115845,0.0825648859620094,-0.1398687362670898,-0.4653063118457794,-0.3510780930519104,walking
1761225778929277200,-0.1725564878586679,-0.1964987236559391,-0.1373953773021698,-0.1611513942480087,-0.4156063795089721,-0.3601091206073761,walking
1761225778939291100,-0.1958135909359902,-0.0405792631477117,-0.2585012985825538,-0.1642847955226898,-0.3796100318431854,-0.3534354865550995,walking
1761225778949304000,-0.1735252598255872,0.1340168407797813,-0.3522165241122245,-0.1412857323884964,-0.3597782850265503,-0.3376927375793457,walking
1761225778959318300,-0.1287454397154971,0.2801671869456767,-0.4192483253777027,-0.1068400964140892,-0.3550789952278137,-0.3098954856395721,walking
1761225778969331000,-0.1231311800302937,0.3382978888750076,-0.4456324744343757,-0.0568046309053897,-0.3579389750957489,-0.2914813458919525,walking
1761225778979344100,-0.2208824926756322,0.3092313688665628,-0.4817699557423591,-0.0039088008925318,-0.3253209292888641,-0.2805944681167602,walking
1761225778989358000,-0.3794808535369113,0.2917588405400514,-0.5172095179140568,0.0428512468934059,-0.2890462875366211,-0.2893722653388977,walking
1761225778999371000,-0.5542249876329675,0.3028653409659862,-0.4231844957828521,0.0892915949225425,-0.2629139423370361,-0.3066488206386566,walking
1761225779009385200,-0.6382526030912995,0.3479395774453878,-0.2864782697886228,0.1340705156326294,-0.2344591319561004,-0.3338668644428253,walking
1761225779019398100,-0.6684812987469136,0.3819634276002645,-0.1596785207808017,0.1687169224023819,-0.2178959101438522,-0.3599667251110077,walking
1761225779029412000,-0.6568496054030954,0.4317845663458108,-0.0092407065540552,0.1971645355224609,-0.2140678912401199,-0.3838686048984527,walking
1761225779039425000,-0.6293915435045957,0.5043120424181222,0.0768704737126827,0.2176431119441986,-0.1947051137685775,-0.4037129282951355,walking
1761225779049438200,-0.622719080003351,0.5904886891365051,0.0913783070147037,0.2282654047012329,-0.154831200838089,-0.4159789085388183,walking
1761225779059452200,-0.5706362068708986,0.6984428678989409,0.1431003109455108,0.2220701873302459,-0.0898575633764267,-0.4095362722873688,walking
1761225779069465000,-0.3965374580062925,0.7614040587246418,0.2923807718306779,0.2022040784358978,-0.0188715364784002,-0.3903167843818664,walking
1761225779079479300,-0.2412910744540393,0.7934154000133276,0.5269704489499331,0.1642407476902008,-0.0256121829152107,-0.3731029629707336,walking
1761225779089492000,-0.1514088512159883,0.809089939007163,0.8811503820896148,0.1182149425148963,-0.0775920301675796,-0.3463469743728637,walking
1761225779099506200,-0.0304729527402669,0.7689274399667978,1.1176374172627923,0.0664702579379081,-0.1812459826469421,-0.2990367114543915,walking
1761225779109519000,0.085204586815834,0.647886400616169,1.192915653347969,0.0094250813126564,-0.2907607555389404,-0.2282027602195739,walking
1761225779119532000,0.0936299218663945,0.5755518167674541,1.094312655776739,-0.0423470735549926,-0.3528998494148254,-0.1520091742277145,walking
1761225779129546200,-0.0367560150651261,0.547972320446372,0.8286071249037981,-0.0796566233038902,-0.3463783264160156,-0.0901098474860191,walking
1761225779139559000,-0.281138698858954,0.4810679449528455,0.4412164115577935,-0.1069314107298851,-0.2795135080814361,-0.0481485016644001,walking
1761225779149573000,-0.4962462613949552,0.4120604597002267,0.1131681140184402,-0.1237788274884224,-0.1768124401569366,-0.0293889269232749,walking
1761225779159586300,-0.644157297090441,0.2865244470179081,-0.0110965635538101,-0.1410999894142151,-0.0650095418095588,-0.0199820008128881,walking
1761225779169599000,-0.6523859039925038,0.0926695158690214,0.028674305820465,-0.1646207571029663,0.013785408809781,-0.0149464961141347,walking
1761225779179613200,-0.5732290363756939,-0.1010229181945324,0.1400900232136249,-0.1806666404008865,0.0753716751933097,-0.008521837182343,walking
1761225779189626000,-0.5335014946864918,-0.2364414424657821,0.1851356181204319,-0.1845716387033462,0.1204797625541687,-0.0115298777818679,walking
1761225779199640000,-0.5156551646115258,-0.2722159356802702,0.3118734078079462,-0.1735990941524505,0.1309064626693725,-0.0175001490861177,walking
1761225779209653200,-0.5458064841819926,-0.2732347573339939,0.4838146133124828,-0.1534024775028228,0.108185164630413,-0.0365705117583274,walking
1761225779219667200,-0.5011555511485785,-0.332332842990756,0.5418155513823032,-0.1081012934446334,0.099683441221714,-0.0584461651742458,walking
1761225779229680000,-0.4146821865059435,-0.3780284262388944,0.5415922640204429,-0.0705003887414932,0.099428579211235,-0.0790294706821441,walking
1761225779239693000,-0.3703495621740817,-0.4152946193158626,0.699119744247198,-0.0596931427717208,0.0922821536660194,-0.0970196202397346,walking
1761225779249707300,-0.2514068833421916,-0.4633697911769151,0.9172329183399676,-0.0686299130320549,0.0725044533610344,-0.0939471274614334,walking
1761225779259720200,-0.0463074680687859,-0.4808633622914552,1.089635896137357,-0.0998399406671524,0.0358087494969368,-0.0851528570055961,walking
1761225779269734100,0.1032735101329162,-0.5689315218448638,1.108513030564785,-0.118769958615303,0.0143290255218744,-0.0737792924046516,walking
1761225779279747000,0.1495863484965637,-0.545441340664029,0.9272089534312488,-0.1331592351198196,0.0418002642691135,-0.0636322721838951,walking
1761225779289761000,0.0768055917829275,-0.3958937532752752,0.7863105364441871,-0.145365834236145,0.0591723285615444,-0.0554659590125083,walking
1761225779299774200,-0.0417598147017881,-0.311329217928648,0.7460001533657312,-0.1622376143932342,0.0579843446612358,-0.0568466857075691,walking
1761225779309787100,-0.1646793247427791,-0.3466512912005186,0.7288701548665761,-0.1851117759943008,0.0474542081356048,-0.0699696764349937,walking
1761225779319801000,-0.2195878497552126,-0.3629500995725393,0.7223585810154676,-0.2056279629468917,0.0334102921187877,-0.0726426914334297,walking
1761225779329814300,-0.2228191598266363,-0.2899497452914714,0.6152806005656719,-0.2311546355485916,0.0282032825052738,-0.0609492883086204,walking
1761225779339828000,-0.209902687369287,-0.118131289383769,0.4666483744561672,-0.2527056336402893,0.0415081605315208,-0.0314942114055156,walking
1761225779349841200,-0.2170224562466144,0.0134855045169591,0.2978407908022403,-0.275140643119812,0.05520586296916,-0.0030396641232073,walking
1761225779359854300,-0.2685062309747562,0.053178632479906,0.0879728824853897,-0.2803806960582733,0.087101474404335,0.0201703161001205,walking
1761225779369868000,-0.312673581742309,0.1153764377176761,-0.1729167725384235,-0.2747946977615356,0.1164806708693504,0.0480927601456642,walking
1761225779379881200,-0.3551215248387306,0.1847550943702459,-0.35910686814785,-0.2502991557121277,0.1356661468744278,0.0798002257943153,walking
1761225779389895200,-0.3849214736882597,0.2403454641669988,-0.5255021299630404,-0.1986793577671051,0.1706800609827041,0.1166373416781425,walking
1761225779399908000,-0.341248409243673,0.2902437598019838,-0.7429775906741619,-0.1242525652050972,0.2006806284189224,0.1654756069183349,walking
1761225779409922000,-0.2432752888075076,0.275371769362688,-0.8022048556685447,-0.0388188883662223,0.2162310928106308,0.216445580124855,walking
1761225779419935200,-0.1777860042762942,0.2275046872943639,-0.800219819331169,0.0545861907303333,0.2248207926750183,0.2693054378032684,walking
1761225779429948200,-0.1717234711006283,0.0985895535677671,-0.7636176431208849,0.1462910771369934,0.2314384877681732,0.305764377117157,walking
1761225779439962000,-0.2273212570188567,-0.0719230804383754,-0.5781792426615953,0.214710846543312,0.2317043989896774,0.3240783810615539,walking
1761225779449975000,-0.3490316104657948,-0.2824894924134016,-0.2770855875432491,0.2439033538103103,0.2002026587724685,0.3175762593746185,walking
1761225779459989000,-0.4526226986479014,-0.4912602531433105,0.0738636931121349,0.2477365434169769,0.1690540760755539,0.2920264899730682,walking
1761225779470002200,-0.5228432860173284,-0.6735463270515203,0.2541162153661251,0.2301857620477676,0.180081695318222,0.2647913992404938,walking
1761225779480016100,-0.6060948390692472,-0.785132140314579,0.2314543017029762,0.2091467827558517,0.2230537086725235,0.2254262417554855,walking
1761225779490029000,-0.7337813077837229,-0.8201040849745274,0.1933025579631328,0.1730763912200927,0.2758972346782684,0.1731332093477249,walking
1761225779500042200,-0.8611646288331598,-0.8052379397541284,0.2043786632508039,0.130122572183609,0.3326263427734375,0.121090181171894,walking
1761225779510056000,-0.8716400648139416,-0.7665367454379797,0.2203302656203508,0.093325950205326,0.3889559507369995,0.0919416174292564,walking
1761225779520069000,-0.7686252421498299,-0.6963561247527599,0.1389198103904724,0.0685268118977546,0.4547812044620514,0.0878949612379074,walking
1761225779530083000,-0.6583423281788826,-0.575361847153306,0.0652238750606775,0.0577332936227321,0.5178280472755432,0.0941411405801773,walking
1761225779540096300,-0.5777306221112608,-0.4443564631491899,0.0515086534410715,0.0705950781702995,0.5685989260673523,0.1049558967351913,walking
1761225779550109400,-0.498211606651172,-0.3185398799598217,0.0566670591175556,0.0931946635246276,0.6152918934822083,0.1275632083415985,walking
1761225779560123400,-0.3636575171895325,-0.2452694765657186,0.1089320838838815,0.1274185180664062,0.6457064151763916,0.155463695526123,walking
1761225779570136300,-0.2198128541501239,-0.2707014394640922,0.2123889512270688,0.1554067432880401,0.6518263816833496,0.188028022646904,walking
1761225779580150300,-0.0848707791510503,-0.3498351819336414,0.2657967162877321,0.1875315457582473,0.6489550471305847,0.2246460914611816,walking
1761225779590163500,-0.0103158877627167,-0.4225578883171081,0.4033855703353881,0.2178444415330886,0.5869750380516052,0.2517245709896087,walking
1761225779600177400,0.112302656295523,-0.5211486109286546,0.4792804770141839,0.2540836036205292,0.4968746304512024,0.280495673418045,walking
1761225779610190300,0.2798434348840266,-0.581542581614852,0.4617869058996439,0.2770557701587677,0.3938294649124145,0.3074319660663605,walking
1761225779620203300,0.3579437426526099,-0.6294359671682119,0.5419020606219768,0.2645088136196136,0.2734047770500183,0.325008749961853,walking
1761225779630217200,0.3374651278452947,-0.6314777021288871,0.6962094097584486,0.2200337797403335,0.1412067860364914,0.3467302918434143,walking
1761225779640230400,0.2589120896068401,-0.5590314745992422,0.7898866413652896,0.1421319544315338,0.0295090228319168,0.3699890375137329,walking
1761225779650244400,0.1222376652566716,-0.488437596938014,0.6795546275556087,0.0462877191603183,-0.051347479224205,0.3874447345733642,walking
1761225779660257300,-0.1093114385902881,-0.3968389251708984,0.378954308912158,-0.0403265766799449,-0.0634141713380813,0.3908231556415558,walking
1761225779670270500,-0.3871487943489104,-0.2829980264574289,-0.0874468127846717,-0.1082760617136955,0.0093127628788352,0.3842417001724243,walking
1761225779680284200,-0.643842970444262,-0.1387771870493888,-0.5683253726452588,-0.1490260362625122,0.1321177035570144,0.3687427341938019,walking
1761225779690297300,-0.8147730992101132,0.0131920745283365,-0.9430921667397022,-0.1687528640031814,0.2868707776069641,0.3499644994735718,walking
1761225779700311300,-0.9445558095514772,0.1563642816662788,-1.21156365519464,-0.1703415662050247,0.4691807627677917,0.3284199833869934,walking
1761225779710324200,-0.91473423339203,0.2629483411192894,-1.288579090335965,-0.1601099669933319,0.6072059869766235,0.3122822940349579,walking
1761225779720338400,-0.8137823346070945,0.3163894239276647,-1.1062556070268152,-0.1266718953847885,0.65262770652771,0.3127619326114654,walking
1761225779730351400,-0.5659181653730571,0.3486158692717552,-0.8874287317067384,-0.0513233393430709,0.6706985831260681,0.3168038129806518,walking
1761225779740364300,-0.4203889467801898,0.4024988506287336,-0.7963269035458564,0.0487173683941364,0.6656544804573059,0.3230365216732025,walking
1761225779750378500,-0.2737122569189407,0.4428454740643501,-0.626377164119482,0.1631115823984146,0.5929408669471741,0.3262317776679992,walking
1761225779760391400,-0.1075308753164485,0.4421943166792392,-0.3460217611253261,0.278573602437973,0.4798887372016907,0.3278658986091614,walking
1761225779770405400,0.0369435278607066,0.3936164559930563,-0.0463502477645874,0.3643963634967804,0.3844146728515625,0.330359935760498,walking
1761225779780418300,0.1828768611419014,0.350772170522809,0.2172819839656352,0.4166070520877838,0.3310205936431885,0.3313666582107544,walking
1761225779790431200,0.2770835234503261,0.3114864543169737,0.4796078092724085,0.426078587770462,0.3075019419193268,0.3275652527809143,walking
1761225779800445400,0.3702555637476966,0.2701502353221178,0.804865599310398,0.3912315666675567,0.2833282053470611,0.3228784203529358,walking
1761225779810458400,0.4536181759586557,0.1939987235337495,1.1083341668665407,0.3220809698104858,0.259202629327774,0.3102717995643616,walking
1761225779820472600,0.5291937144899741,0.0999082349509,1.3221873454272746,0.2301300913095474,0.2258606702089309,0.2981081008911133,walking
1761225779830485200,0.5908387446831912,0.02967208468616,1.4377549218028782,0.1355540454387664,0.1815331578254699,0.2840229272842407,walking
1761225779840499500,0.582648533562757,-0.0765238522320985,1.382223004195094,0.0518282763659954,0.1441034525632858,0.2513262033462524,walking
1761225779850512400,0.5350945360315963,-0.1419166541188955,1.2638310180485248,-0.0234259963035583,0.0912205353379249,0.2038825005292892,walking
1761225779860525300,0.4825757191672921,-0.1710281823128461,1.2022060442626477,-0.0937543138861656,0.0180762931704521,0.160573661327362,walking
1761225779870539500,0.4746140561057254,-0.1398147134035825,1.141898582816124,-0.1558704078197479,-0.0495211295783519,0.1224236190319061,walking
1761225779880552200,0.4950671346129849,-0.0672340458393096,0.9631494508624076,-0.2037386894226074,-0.0875063389539718,0.09125367552042,walking
1761225779890566400,0.4548790627399459,0.0379354706406593,0.7156073531895876,-0.2447990328073501,-0.1056869402527809,0.0669885501265525,walking
1761225779900579300,0.3553980402251705,0.1927718120872974,0.4497124372243881,-0.2634424865245819,-0.1158684492111206,0.0428734123706817,walking
1761225779910592300,0.2046821031767874,0.3616477848023176,0.1928062988787889,-0.2647636830806732,-0.1043697223067283,0.0252741780132055,walking
1761225779920606500,0.1446151176889427,0.4430161544561385,-0.1263958443820476,-0.2370138168334961,-0.0547619760036468,0.0146286720409989,walking
1761225779930619400,0.0769810579476878,0.5035696996182203,-0.3972404917091131,-0.195850670337677,0.0268569868057966,0.0090421587228775,walking
1761225779940633300,-0.0195452223977423,0.5029851777285337,-0.5167892466753721,-0.1616314798593521,0.1262475848197937,-0.013524992391467,walking
1761225779950646500,-0.0765980271465843,0.4627385075360536,-0.4496814575642347,-0.1326743960380554,0.2311574816703796,-0.0410381108522415,walking
1761225779960660500,-0.112002175511606,0.3625099545896053,-0.3211374952375889,-0.1103791967034339,0.3341109752655029,-0.0725508630275726,walking
1761225779970673400,-0.0949929355815984,0.2634843476921319,-0.1584720676004886,-0.0872789397835731,0.4167501926422119,-0.105896309018135,walking
1761225779980686300,0.0187855014880653,0.2068675574570894,0.1188075812101364,-0.0680200830101966,0.4584232866764068,-0.1273495405912399,walking
1761225779990700500,0.2409543898455798,0.1940051532745361,0.4159399314820766,-0.0526421926915645,0.4464140236377716,-0.1387846171855926,walking
1761225780000713500,0.4423556447207927,0.204285139748454,0.7876900081038475,-0.0510350838303566,0.3633410036563873,-0.1397590041160583,walking
1761225780010727400,0.6331721580218523,0.1217149930894374,1.185744738805294,-0.0779343396425247,0.2317307889461517,-0.1345418691635131,walking
1761225780020740400,0.8528571114759892,0.0080897829532623,1.4923819995254275,-0.1179829314351081,0.1024446561932563,-0.1127024516463279,walking
1761225780030753300,1.0416370043829082,-0.0416430929869413,1.5959131011486052,-0.1642295271158218,-0.0034002810716629,-0.0673623979091644,walking
1761225780040767500,1.1712049029298126,-0.0053606502503156,1.5482278053879737,-0.215567409992218,-0.0732591822743415,-0.0024902890436351,walking
1761225780050780400,1.2043690675154328,0.1088356377720832,1.4285995554447173,-0.2620044350624084,-0.1386794596910476,0.0666445717215538,walking
1761225780060794400,1.16405978041552,0.1251525663226843,1.2910101168751715,-0.2921009659767151,-0.195727601647377,0.127570167183876,walking
1761225780070807600,1.0391033942520618,0.0093856679826974,0.9629109659314156,-0.2876183092594147,-0.2118564993143081,0.1698688864707946,walking
1761225780080821200,0.8455217270866036,-0.1596989790469408,0.5761585504889488,-0.2637782394886017,-0.2065027952194214,0.1807070523500442,walking
1761225780090834400,0.5663618540199473,-0.2854600326567888,0.270530174550414,-0.2270156741142273,-0.1885086148977279,0.1632540225982666,walking
1761225780100847400,0.3036058754012919,-0.412888142696023,0.0561392358511686,-0.1735085248947143,-0.1652530431747436,0.1147585064172744,walking
1761225780110861300,0.0827942103390116,-0.5384820230454206,-0.0598725771605968,-0.1397734731435775,-0.1481310576200485,0.0506048165261745,walking
1761225780120874500,0.0067753028212115,-0.6273901405543089,-0.0377723890334367,-0.124373972415924,-0.1509748548269271,-0.0102536305785179,walking
1761225780130888400,0.0387366355222882,-0.715718412348628,0.0421510425090789,-0.1152521148324012,-0.1702638566493988,-0.0585362091660499,walking
1761225780140901400,0.1567440016988665,-0.7087544185549021,0.0541688125610351,-0.115205779671669,-0.1839583665132522,-0.0766203999519348,walking
1761225780150914300,0.2581269853774458,-0.6128776310771703,0.0027349779218435,-0.1089590638875961,-0.1967375427484512,-0.0742880031466484,walking
1761225780160928500,0.3484519108816981,-0.457359152585268,-0.0521422751694917,-0.0978819206357002,-0.2211621552705764,-0.0550098642706871,walking
1761225780170941400,0.3944097617952153,-0.3388450013637542,-0.0969885481119155,-0.0828193500638008,-0.254609614610672,-0.0356979519128799,walking
1761225780180955400,0.3704447661768645,-0.2875853542476892,-0.2312771915704012,-0.0442936606705188,-0.2603918015956878,-0.0192639417946338,walking
1761225780190968300,0.278930356893409,-0.2563870829075574,-0.4442074100673198,0.009798870421946,-0.2659892141819,-0.0125823384150862,walking
1761225780200981500,0.1521448190740309,-0.2119640038132667,-0.5244400536894798,0.0699671134352684,-0.3215605616569519,-0.0255640782415866,walking
1761225780210995500,0.0022424086319282,-0.2076607536613941,-0.4451648569226265,0.1314983963966369,-0.3908136487007141,-0.059685830026865,walking
1761225780221008400,-0.0278616468638647,-0.2436380759716034,-0.4062070574969053,0.1791397184133529,-0.441261738538742,-0.0896447375416755,walking
1761225780231022300,-0.003558971123211,-0.2446826165884733,-0.4217068244457244,0.2207976877689361,-0.4639247059822082,-0.1173458695411682,walking
1761225780241035500,0.045843275489984,-0.241035199996829,-0.4944499890953302,0.2546057105064392,-0.4599302411079407,-0.1300840377807617,walking
1761225780251049200,0.0563521296831779,-0.1833171705216169,-0.4822615386515855,0.2761914432048797,-0.4696979224681854,-0.1366007924079895,walking
1761225780261062400,0.0735987402993254,-0.1315109954386949,-0.2978875525534152,0.2808696329593658,-0.5118270516395569,-0.1371159255504608,walking
1761225780271075600,0.1260194488177076,-0.1464852772086858,-0.0763882431536912,0.2766501307487488,-0.5750513076782227,-0.1288430839776992,walking
1761225780281089300,0.1273737129708751,-0.2282166349560022,0.1101169097542762,0.2553121149539947,-0.6672688126564026,-0.1265583932399749,walking
1761225780291102500,-0.003848345991224,-0.373418886616826,0.2636357388615608,0.2335804402828216,-0.716762363910675,-0.1438734680414199,walking
1761225780301116400,-0.2349950065171346,-0.5050672446995973,0.1897656160086393,0.2142300605773925,-0.7008757591247559,-0.1922392845153808,walking
1761225780311129300,-0.4943301986405625,-0.5895692362040281,-0.0164390936255455,0.1963362842798233,-0.6269543766975403,-0.2601235210895538,walking
1761225780321142500,-0.6865167216531932,-0.6451403167784213,-0.163268069705367,0.1753031462430954,-0.5440797209739685,-0.3587099611759186,walking
1761225780331156200,-0.833224482506141,-0.7125549798816442,-0.210945182159543,0.1379235535860061,-0.4249149560928345,-0.4590895771980285,walking
1761225780341169400,-0.8474383012976497,-0.6142991883128881,-0.1507014335989952,0.0768616646528244,-0.3080345094203949,-0.5535590052604675,walking
1761225780351183400,-0.7496601371780037,-0.5030979904532432,0.0361170230418443,-0.0015820085536688,-0.2193035781383514,-0.6142039895057678,walking
1761225780361196300,-0.5266209413925186,-0.3424059087157249,0.2984896100997924,-0.1034754291176796,-0.2039794921875,-0.643617570400238,walking
1761225780371210200,-0.2800368385642767,-0.1910766986072063,0.6402502066493034,-0.2096074670553207,-0.2467429488897323,-0.6393826007843018,walking
1761225780381223400,-0.0096133757913485,-0.0657341626703739,0.8235586093425751,-0.3025361895561218,-0.3090653121471405,-0.6144453287124634,walking
1761225780391236400,0.1713824573769234,0.0379290408998727,0.7543348509907722,-0.3786730468273163,-0.369840532541275,-0.5771937966346741,walking
1761225780401250300,0.2129615817495621,0.189971367713809,0.5452046092987061,-0.4194270372390747,-0.4266926646232605,-0.528810441493988,walking
1761225780411263500,0.2116393201698549,0.4215893355458974,0.2868319055318832,-0.4342896044254303,-0.4801449477672577,-0.4734658896923065,walking
1761225780421277200,0.2388564859845675,0.5883727198958396,-0.0498269839644432,-0.4210348725318908,-0.4979758560657501,-0.4150025248527527,walking
1761225780431290400,0.238279252352193,0.6110229431211948,-0.4470721518486737,-0.3831612765789032,-0.4764553904533386,-0.3535309135913849,walking
1761225780441303600,0.2058267431672662,0.5739969885408878,-0.7793874591827392,-0.3354074954986572,-0.4421581625938415,-0.3053557276725769,walking
1761225780451317200,0.100529983578436,0.5315928480535745,-0.9163274939328432,-0.2860231697559356,-0.4564007520675659,-0.2661137878894806,walking
1761225780461330400,-0.0231622644007205,0.4677297399520874,-0.9766571672111748,-0.2247419208288192,-0.4837232828140259,-0.2328622937202453,walking
1761225780471344400,-0.1030991764793172,0.4559516238749027,-1.1790893725693226,-0.1329986900091171,-0.4552937746047973,-0.1951793581247329,walking
1761225780481357300,-0.2121495529806241,0.5086129544824362,-1.519750483444333,-0.0203513093292713,-0.3756443560123443,-0.1643867790699005,walking
1761225780491370500,-0.3648670025771484,0.5666203222930432,-1.7117431278526782,0.0820475071668624,-0.2822659313678741,-0.1447800546884536,walking
1761225780501384200,-0.5179014822335913,0.537808069306612,-1.5816250480771064,0.1612307578325271,-0.2031431794166565,-0.1412195116281509,walking
1761225780511397400,-0.5771748513920232,0.3930342721909284,-1.24942372251153,0.2117591798305511,-0.1684866696596145,-0.1512002348899841,walking
1761225780521411300,-0.5290841166356578,0.1937695909529924,-0.7782026333123445,0.2349941283464431,-0.1796157956123352,-0.1626647114753723,walking
1761225780531424300,-0.428889027567394,0.0872387229919433,-0.3091717476338148,0.2323168516159057,-0.1955761164426803,-0.1666698306798935,walking
1761225780541438500,-0.3376016867717727,0.0348474414974451,0.0096697456210851,0.2129184156656265,-0.1957693696022033,-0.1579887568950653,walking
1761225780551451100,-0.2730678032692522,0.0278641584813594,0.1343219612061977,0.1800917685031891,-0.1676706224679947,-0.1357228606939315,walking
1761225780561464300,-0.2738280105194077,0.0454565137952566,0.2506640290856361,0.1398907750844955,-0.1301478445529937,-0.1184511706233024,walking
1761225780571478300,-0.2933507128413766,0.0462269136458635,0.4101701159089803,0.0947898775339126,-0.1236111223697662,-0.0954816788434982,walking
1761225780581491200,-0.2919608659181744,0.0541752423018217,0.6015490123331546,0.0485409051179885,-0.1446407884359359,-0.0688695609569549,walking
1761225780591505400,-0.2575912345329299,0.0249444716423749,0.7174146948724984,0.0216040965169668,-0.1672536879777908,-0.0355201251804828,walking
1761225780601518300,-0.2419017171656712,0.0244552268207073,0.7343623225420713,0.0080946683883667,-0.1876593381166458,-0.0089371940121054,walking
1761225780611531300,-0.2812825643090531,0.0462953027069568,0.6797691470891237,0.0086150495335459,-0.1982129216194152,0.0139446854591369,walking
1761225780621545200,-0.3819559384135529,0.0383826298862695,0.5740355669856071,0.0323331728577613,-0.2041214257478714,0.034331128001213,walking
1761225780631558100,-0.5052212296849117,0.0165951609700918,0.4297299719035625,0.0792359709739685,-0.1945699900388717,0.0413450971245765,walking
1761225780641572400,-0.6086350981365889,-0.0419610728949308,0.2523585580438375,0.1540709882974624,-0.1575758010149002,0.0368716977536678,walking
1761225780651585300,-0.6816610983155668,-0.0667336951017379,0.1412970609158277,0.240192025899887,-0.1481990814208984,0.0202232133597135,walking
1761225780661598200,-0.7324399031121284,-0.0991442648410797,0.2448328387141227,0.3133792877197265,-0.1506711840629577,-0.0091198002919554,walking
1761225780671612200,-0.7409757493324577,-0.1563812328010797,0.4977577984690666,0.3573755025863647,-0.1609650999307632,-0.0420569777488708,walking
1761225780681625300,-0.6951704951647669,-0.1999894883811473,0.801391201198101,0.3571364283561706,-0.1655979305505752,-0.0797262862324714,walking
1761225780691639300,-0.6764381029702723,-0.2590858204722404,1.1348960105776786,0.3174028694629669,-0.148712158203125,-0.1027383953332901,walking
1761225780701652200,-0.6651955550745129,-0.2908276971697807,1.3527291986852883,0.2343262732028961,-0.1259577423334121,-0.1250779032707214,walking
1761225780711666400,-0.6267348915159702,-0.3029121027171612,1.5125170250594615,0.1257635802030563,-0.0892141088843345,-0.1504109501838684,walking
1761225780721679000,-0.6374111838310956,-0.3108773825079202,1.6597317855864762,0.0035947817377746,-0.0499120727181434,-0.181310161948204,walking
1761225780731692300,-0.6392072734676301,-0.321181918901205,1.8015034782767292,-0.132856011390686,-0.0246988590806722,-0.2113729864358902,walking
1761225780741706500,-0.5533787825997919,-0.3030184857010841,1.868900021201372,-0.2649529576301574,-0.0159568190574646,-0.21469646692276,walking
1761225780751719200,-0.3860255624726414,-0.2214911260932683,1.815419775426388,-0.3741665184497833,-0.0155863724648952,-0.1922257840633392,walking
1761225780761733400,-0.2348056214248761,-0.0700303985595703,1.6371628109037877,-0.444378912448883,-0.0059057385660707,-0.1517272442579269,walking
1761225780771746300,-0.1859773661741987,0.1028682538002729,1.3762240560412409,-0.4837332367897033,-0.0183586794883012,-0.1032494604587555,walking
1761225780781759200,-0.1778561651693657,0.2210287692785263,1.1230284626513718,-0.4948976039886474,-0.0471176952123642,-0.0521334558725357,walking
1761225780791773400,-0.1722202781742438,0.2617804663836955,0.8554308344215155,-0.459250658750534,-0.0912851616740226,0.0009010026697069,walking
1761225780801786000,-0.1517556188270449,0.2573492059379816,0.4823714287668466,-0.3793685734272003,-0.1743391156196594,0.0533831790089607,walking
1761225780811800300,-0.2469286784822121,0.2251215915501117,-0.1129962645828723,-0.2354992777109146,-0.1363746970891952,0.0904487818479538,walking
1761225780821813200,-0.4018143024306744,0.2423912907809019,-0.7938625592589378,-0.0599507205188274,-0.0456971004605293,0.1092883497476577,walking
1761225780831826200,-0.5650822260055691,0.2810042222917079,-1.0266975016653537,0.0942007675766944,-0.0139468945562839,0.1107000932097435,walking
1761225780841840400,-0.5991431567678228,0.2227168684959411,-0.8485784843087196,0.2023948282003402,-0.0162721592932939,0.1132717728614807,walking
1761225780851853300,-0.5456400781065225,-0.0076081369161605,-0.5542851568549871,0.2640256881713867,0.0091596972197294,0.1202311441302299,walking
1761225780861867300,-0.472737229383178,-0.2215782198548316,-0.2599158415555954,0.271537721157074,0.051546212285757,0.1343342363834381,walking
1761225780871880200,-0.4417936999890953,-0.3669172496378421,0.132756611585617,0.2284283339977264,0.0823065191507339,0.1300595998764038,walking
1761225780881893400,-0.4531383930850773,-0.4950467859447002,0.5209422747015953,0.1570671200752258,0.1098354309797287,0.1171634271740913,walking
1761225780891907300,-0.4179483852276578,-0.6002940438359975,0.7642582791119813,0.0656344071030616,0.1553637683391571,0.1064617782831192,walking
1761225780901920300,-0.3838010182909667,-0.6914747824519872,0.861973972454667,-0.0222079362720251,0.2141072750091552,0.0957237258553505,walking
1761225780911934500,-0.3654122884349897,-0.7393120539039373,0.8993167378991842,-0.1018518954515457,0.2451911568641662,0.082475297152996,walking
1761225780921947100,-0.4188064998943358,-0.7482511471629142,0.927963571190834,-0.1645827889442443,0.2498172372579574,0.0582315139472484,walking
1761225780931961300,-0.4789635565521195,-0.7199842530995607,0.8411071255147456,-0.2015083134174347,0.2627301216125488,0.0305367689579725,walking
1761225780941974500,-0.4301785924538969,-0.6424573613047599,0.5636363380461931,-0.1999040842056274,0.2697862684726715,0.0109015433117747,walking
1761225780951987200,-0.3684152696432545,-0.5074024096488953,0.1836865883558988,-0.1637689769268036,0.3121616840362549,0.015609479509294,walking
1761225780962001400,-0.3186631410133093,-0.3270499341517686,-0.2605173145800828,-0.0751133859157562,0.3951031267642975,0.0372648686170578,walking
1761225780972014000,-0.2411670462155714,-0.1041290675163269,-0.641433278954029,0.0340999141335487,0.4922296702861786,0.0674419477581977,walking
1761225780982028300,-0.1334099609278142,0.0443769018650054,-0.7857529025614262,0.1521535366773605,0.5700069665908813,0.1001243367791175,walking
1761225780992041500,-0.0017433730686083,0.0859516057908535,-0.6508195314586163,0.2388841658830642,0.5988370180130005,0.1358043104410171,walking
1761225781002054100,0.1544882951939478,-0.0396142175078392,-0.3337748584926128,0.3051006495952606,0.5885697603225708,0.1706999838352203,walking
1761225781012068400,0.3150041070491075,-0.1778174040615558,0.0816787507772445,0.3192321956157684,0.5307429432868958,0.2078265845775604,walking
1761225781022081300,0.4118306695323437,-0.3254050895541906,0.5036451029419898,0.2929777503013611,0.4651851952075958,0.244714543223381,walking
1761225781032095200,0.497658137486875,-0.4609276587218046,0.7507090617090463,0.2379030585289001,0.4317215085029602,0.27510866522789,walking
1761225781042108400,0.5147849576482549,-0.609756284186244,0.790064920541644,0.1648437827825546,0.4604681730270386,0.2981840968132019,walking
1761225781052121300,0.515163435571827,-0.7600736869037151,0.7048369528502225,0.072862721979618,0.5036753416061401,0.3180680572986603,walking
1761225781062135300,0.4862468454280867,-0.8146411433935165,0.7318792735546827,-0.0390871204435825,0.4955213367938995,0.3366643488407135,walking
1761225781072148200,0.4153068212103098,-0.8548883981078863,0.8856506161183119,-0.1473496854305267,0.4116986095905304,0.3473087549209595,walking
1761225781082162400,0.3304797624699771,-0.957936100128293,0.7921417268157005,-0.2266074270009994,0.3178890943527221,0.3520697951316833,walking
1761225781092175400,0.2238553710065782,-0.9861679228782652,0.3591425239831209,-0.2578564286231994,0.2522355020046234,0.3324510753154754,walking
1761225781102188300,-0.0209968665277585,-0.8628326351106166,-0.2437988194912672,-0.2564623951911926,0.2267897278070449,0.2952849268913269,walking
1761225781112202500,-0.3195100036336109,-0.6031067631691693,-0.8261632388830185,-0.2314142882823944,0.2560725212097168,0.2478164583444595,walking
1761225781122215200,-0.5530051269818097,-0.2979658784866333,-1.2575824790477752,-0.1944654434919357,0.3606761395931244,0.2128060311079025,walking
1761225781132229400,-0.6324336876794695,-0.0300374108672142,-1.578999960270524,-0.1531060189008712,0.492388367652893,0.1966297179460525,walking
1761225781142242300,-0.5247211356531828,0.2242763728976249,-1.7144933033436536,-0.099745437502861,0.6335523128509521,0.2110419869422912,walking
1761225781152256300,-0.304014145674929,0.4673340186327696,-1.7120424030601975,-0.0241950210183858,0.7628485560417175,0.2520882487297058,walking
1761225781162269400,-0.0643480055416002,0.6641366936713456,-1.5932926895171402,0.0635007172822952,0.836324155330658,0.3111220896244049,walking
1761225781172282000,0.1261558524805586,0.7619517557352781,-1.2873252908825874,0.149646520614624,0.8374466896057129,0.3618561029434204,walking
1761225781182296300,0.2597255248815752,0.7130752043634653,-0.858139508858323,0.23555289208889,0.7727998495101929,0.3993726968765259,walking
1761225781192309500,0.3789232927193865,0.6132569857835769,-0.4693903666406869,0.3180549442768097,0.6802323460578918,0.4348444044589996,walking
1761225781202323200,0.4401275934077799,0.5118371772259473,-0.1635053855925798,0.3877748847007751,0.5921189785003662,0.4576344490051269,walking
1761225781212336400,0.3988517993632703,0.4572767349988222,0.1217506489247083,0.4344033896923065,0.4998750984668731,0.471634954214096,walking
1761225781222349300,0.3496295763589441,0.4048533048003911,0.398548067176342,0.4677914977073669,0.4099695682525635,0.4725686907768249,walking
1761225781232363300,0.3451815109089016,0.2953425442457199,0.6090086806893348,0.474543422460556,0.3288148045539856,0.4661853611469269,walking
1761225781242376400,0.3499714851317927,0.1655541348159313,0.8184475499391556,0.4521713256835937,0.2635628581047058,0.4402781724929809,walking
1761225781252390400,0.3355187795504927,0.0115226800113916,0.9965116222381591,0.3961059153079986,0.228887990117073,0.4014817774295807,walking
1761225781262403300,0.3086857542151585,-0.1156581772685051,1.161715628442168,0.3117394149303436,0.2147084772586822,0.3567594885826111,walking
1761225781272416300,0.2282539347590878,-0.2100602160185575,1.3142279108554125,0.1961249262094497,0.2041359841823578,0.2930673360824585,walking
1761225781282430200,0.1088516481919679,-0.2925730795323848,1.4870172576218843,0.0501622632145881,0.1832422316074371,0.2147495448589325,walking
1761225781292443400,0.0403582088421331,-0.374946242314577,1.5755413442492483,-0.0999236479401588,0.1376694291830063,0.1266857236623764,walking
1761225781302457300,0.0343740130161284,-0.3896265095740556,1.5405278985351325,-0.2401730716228485,0.0667318701744079,0.0531553514301776,walking
1761225781312470300,0.1011445992122869,-0.2499281160265207,1.3707377335846422,-0.3438667356967926,-0.0075620631687343,0.0027888482436537,walking
1761225781322483200,0.1274327862143516,0.0075748191684484,0.9838456174105406,-0.4206392467021942,-0.0570795945823192,-0.0309737473726272,walking
1761225781332497400,0.1276477258729748,0.2710615049481392,0.443155270665884,-0.444304883480072,-0.0911430194973945,-0.0389083698391914,walking
1761225781342510300,0.1091026181451976,0.4965121823221445,-0.2729237916886806,-0.4006206393241882,-0.0072464253753423,-0.0204923842102289,walking
1761225781352524300,0.0346516997296363,0.7451531811475753,-1.1377519845306872,-0.2867590487003326,0.1769298017024994,-0.0041909092105925,walking
1761225781362537500,-0.1387304161650594,0.9140519502162932,-1.680161410152912,-0.1577696055173874,0.3673547804355621,-0.0157354399561882,walking
1761225781372550100,-0.3072509356390684,0.9437731347411872,-1.6657985382795333,-0.041606780141592,0.4856220185756683,-0.0444621592760086,walking
1761225781382564400,-0.2560441329550929,0.8381786708474159,-1.2254758606910705,0.0533544011414051,0.5296796560287476,-0.0673330575227737,walking
1761225781392577300,-0.0069182549558579,0.6641419543683529,-0.6688701519340277,0.1179395243525505,0.5263645648956299,-0.0705709308385849,walking
1761225781402591200,0.2629281751140952,0.4963841720283031,-0.0478904629439115,0.1494011580944061,0.4561959505081177,-0.0729992389678955,walking
1761225781412604400,0.4338205291528254,0.3402244730234146,0.6031155309975147,0.1410428285598755,0.3457541465759277,-0.0679280534386634,walking
1761225781422617000,0.638243762197718,0.2936585366815328,1.161184882566333,0.0985470041632652,0.2228661030530929,-0.062618613243103,walking
1761225781432631300,0.814549446522072,0.2561228790134191,1.5346587142407893,0.0262837223708629,0.1052007153630256,-0.0327014662325382,walking
1761225781442644500,0.9764754539687186,0.2717389658182859,1.7382324908494948,-0.0710043832659721,0.0086702723056077,0.0165836438536643,walking
1761225781452658200,1.0787710955128074,0.2679576937139034,1.818535277098417,-0.1692129671573639,-0.0895569622516632,0.0915124788880348,walking
1761225781462671400,1.1021401345320043,0.3029208705455065,1.673728746756911,-0.2415069341659546,-0.1509645730257034,0.1712040454149246,walking
1761225781472685300,0.9652159549381584,0.3165560126662254,1.3013795351982116,-0.2720536291599273,-0.1759386211633682,0.2162242531776428,walking
1761225781482698200,0.6661991791591048,0.2816805141180754,0.919835794314742,-0.2749343812465668,-0.2086896449327469,0.2311733812093734,walking
1761225781492711400,0.3441386142598465,0.1937146458953619,0.5465174454629421,-0.2279847264289856,-0.2263245731592178,0.2220451235771179,walking
1761225781502725400,0.0518910220884717,0.1121516304522752,0.1088268699437379,-0.1438521891832351,-0.199923574924469,0.1851598471403122,walking
1761225781512738300,-0.2132084143837913,0.0588362198501825,-0.1677975298285484,-0.0516660697758197,-0.1854295879602432,0.1204514279961586,walking
1761225781522751200,-0.4408929152244701,-0.0425806660979986,-0.1305441962331533,0.0088230911642313,-0.1882549226284027,0.0430253967642784,walking
1761225781532765400,-0.4794711407480761,-0.1530500425517559,0.0337713366985321,0.0486983358860015,-0.1755215376615524,-0.0199296008795499,walking
1761225781542778600,-0.3664473671037703,-0.1861421648144721,0.2692541632652283,0.0454055368900299,-0.1709997951984405,-0.0568448305130004,walking
1761225781552792600,-0.1735640209333971,-0.2198147173136472,0.5790829135030507,0.0206333436071872,-0.1802079379558563,-0.07305708527565,walking
1761225781562805800,0.0169736799928592,-0.2137789442807436,0.9362228654921054,-0.0319267474114894,-0.1989493370056152,-0.083686426281929,walking
1761225781572819700,0.1470361616902518,-0.2123871976613998,1.2417945428073405,-0.0936678797006607,-0.2470388561487198,-0.0856632888317108,walking
1761225781582832600,0.2411417291112244,-0.1916524526685476,1.5063924046993256,-0.1659960299730301,-0.3535032868385315,-0.0797199830412864,walking
1761225781592845600,0.3465999994046986,-0.2044265940457582,1.596760073366761,-0.2263014465570449,-0.4704836905002594,-0.057403489947319,walking
1761225781602859800,0.4215986878961324,-0.2498375151336193,1.4028823458641766,-0.2593497335910797,-0.5631047487258911,-0.032729972153902,walking
1761225781612872700,0.403016773555614,-0.2416249825835227,0.9564315407842398,-0.2639732360839844,-0.6167932748794556,-0.0169030725955963,walking
1761225781622886700,0.2468131988763809,-0.2013216137677431,0.4443336667954921,-0.2450312077999115,-0.6603590846061707,-0.0136495660990476,walking
1761225781632899600,0.0528858052794821,-0.2047679548293352,0.0360474649369716,-0.2003018260002136,-0.6974249482154846,-0.0226870011538267,walking
1761225781642912500,-0.1032618927603587,-0.240733002179861,-0.3578308568626642,-0.1432171612977981,-0.7261657118797302,-0.0347595587372779,walking
1761225781652926700,-0.2329487415118142,-0.2899579285979271,-0.7133207035571336,-0.0785537436604499,-0.7440951466560364,-0.0536762587726116,walking
1761225781662939600,-0.3072374551029875,-0.341331557482481,-1.0061772762060164,-0.008514154702425,-0.7383689880371094,-0.0800377652049064,walking
1761225781672953600,-0.3613214389247819,-0.3774222770392894,-1.2108704122334717,0.0645408779382705,-0.7081599235534668,-0.0989131852984428,walking
1761225781682966800,-0.4134310539336875,-0.4749211127609014,-1.3766677081555128,0.1338275969028473,-0.6378800868988037,-0.1184723675251007,walking
1761225781692979500,-0.400925573430024,-0.6417290470302105,-1.4611083248615264,0.1911782324314117,-0.5706744194030762,-0.1588794440031051,walking
1761225781702993700,-0.4289217607932165,-0.8546820618808268,-1.2622031245857477,0.2091025114059448,-0.5729496479034424,-0.2145822942256927,walking
1761225781713006800,-0.5177946608582511,-1.0832990943312644,-0.7794856588602066,0.1804301291704177,-0.6325365304946899,-0.2979179322719574,walking
1761225781723020500,-0.5362421716967597,-1.2865753492981196,-0.3804594527781009,0.1099923700094223,-0.7019841074943542,-0.3797928988933563,walking
1761225781733033700,-0.5106634207388386,-1.376758893570304,-0.1409369954317808,0.0077701276168227,-0.752734899520874,-0.4507983922958374,walking
1761225781743046400,-0.5758780530471355,-1.3215186523854732,-0.0345844066470861,-0.1184119209647178,-0.7710371017456055,-0.5240095257759094,walking
1761225781753060600,-0.7497138401266187,-1.1758166345089671,-0.0747626877784728,-0.2452867776155471,-0.7404959797859192,-0.5996294021606445,walking
1761225781763073800,-0.8662559606228023,-0.9586994857162237,-0.2921872950851917,-0.3444968461990356,-0.6608691215515137,-0.6629608869552612,walking
1761225781773087700,-0.8891647617191075,-0.6602087065726518,-0.6109340957939624,-0.4140732586383819,-0.5496182441711426,-0.7101483941078186,walking
1761225781783100700,-0.8486549105457961,-0.3231546802788972,-0.9225935685902832,-0.4362468123435974,-0.4172815382480621,-0.7257186770439148,walking
1761225781793113600,-0.7311098235521465,0.010967968738079,-1.162637419462204,-0.4104095995426178,-0.3128986954689026,-0.7219353914260864,walking
1761225781803127600,-0.5490198202053085,0.2647492530614137,-1.2051193013608454,-0.3471369445323944,-0.2496637254953384,-0.6895096302032471,walking
1761225781813140700,-0.2945405436804518,0.3856149358451366,-1.1825807218164204,-0.2426414340734481,-0.2502269744873047,-0.650135338306427,walking
1761225781823154700,-0.070728646489419,0.5042728794515132,-1.0666238538622856,-0.1142255514860153,-0.2993069291114807,-0.5962415933609009,walking
1761225781833167600,0.0595834580209106,0.5524737235188484,-0.9058207129657267,0.0355245247483253,-0.3592208623886108,-0.5512794256210327,walking
1761225781843180500,0.1172752205437049,0.6208142692953348,-0.7680021418154239,0.1767990887165069,-0.40941321849823,-0.509128212928772,walking
1761225781853194800,0.0568986028511077,0.6476397323787212,-0.6100497141748666,0.2901821136474609,-0.4299168884754181,-0.4772874414920807,walking
1761225781863207700,-0.0062111661324277,0.6547077710688114,-0.3921954832792282,0.3729033470153808,-0.4194410443305969,-0.4485777020454407,walking
1761225781873221600,-0.0195488596765324,0.6178624337524176,-0.0537187307059764,0.4030764102935791,-0.4125248193740845,-0.4239692986011505,walking
1761225781883234800,-0.0558098942989483,0.4868295772194862,0.3871498903274536,0.3872816860675812,-0.4286777377128601,-0.412415862083435,walking
1761225781893247500,-0.0862846371375024,0.333144159373641,0.7669312977135181,0.3361311554908752,-0.4358411133289337,-0.4073705077171325,walking
1761225781903261700,-0.1642586516452953,0.2081377235233783,0.9922381827026604,0.2537037134170532,-0.4347952604293823,-0.4252346456050873,walking
1761225781913274600,-0.3124727619405835,0.1308703594475984,1.189358837649226,0.1378556787967682,-0.4344999194145202,-0.4531528055667877,walking
1761225781923288600,-0.4502490283191204,0.0576952331215143,1.292812782382965,0.0056903855875134,-0.4157446324825287,-0.4857457280158996,walking
1761225781933301800,-0.4955903182368725,0.0186117614895105,1.2135124511748552,-0.1249182224273681,-0.3495986461639404,-0.5131939053535461,walking
1761225781943314400,-0.4154553263029083,0.1445019944369792,1.0297902069836855,-0.2487041056156158,-0.287930428981781,-0.5131173729896545,walking
1761225781953328600,-0.3315126857142895,0.348375630775094,0.843417156022787,-0.3568670451641083,-0.2282186448574066,-0.4833578467369079,walking
1761225781963341800,-0.2151826005335897,0.536918426990509,0.5746054758280515,-0.4212941527366638,-0.1636867672204971,-0.4305864572525024,walking
1761225781973355500,-0.01163512740992,0.6649111851751804,0.210974992775917,-0.4537383913993835,-0.1254751980304718,-0.3615567982196808,walking
1761225781983368700,0.0675295581871643,0.7113812599271535,0.0239800105243921,-0.4529178142547607,-0.1450025141239166,-0.2941390872001648,walking
1761225781993381600,0.0695247140597552,0.7134007830560207,-0.0789443573772907,-0.4214672148227691,-0.2103072255849838,-0.2236318737268448,walking
1761225782003395600,0.0965591802513226,0.6768465376406908,-0.2599842306166887,-0.3474231660366058,-0.2644037306308746,-0.1511856317520141,walking
1761225782013408800,0.0361039443645626,0.6498451334685087,-0.6137228497296572,-0.230324238538742,-0.2518338859081268,-0.0843805000185966,walking
1761225782023422700,-0.112418428162299,0.677655515936017,-0.9884317761570216,-0.0857230573892593,-0.195418119430542,-0.0245235431939363,walking
1761225782033435600,-0.2715663491977378,0.7088526182323693,-1.1512328128725289,0.0667642205953598,-0.1312146335840225,0.0108429677784442,walking
1761225782043448600,-0.4281175317382439,0.5600000273704528,-0.9914999315559864,0.1828456968069076,-0.079538881778717,0.0230025481432676,walking
1761225782053462500,-0.5131658685464412,0.2880126397490501,-0.5777028573215007,0.2514567077159881,-0.0655538216233253,0.0231447611004114,walking
1761225782063475700,-0.4650699096256867,0.0468242950171232,-0.0740372961133718,0.2842006683349609,-0.0923559293150901,0.0293122567236423,walking
1761225782073489700,-0.3536174038860947,-0.1115659395188093,0.3922212022423744,0.271268367767334,-0.1265988498926162,0.0427633486688137,walking
1761225782083502600,-0.2673090570794418,-0.1873427727758884,0.6849298908531666,0.2509637773036957,-0.1361830085515976,0.0583548955619335,walking
1761225782093515500,-0.2565286833353341,-0.1919371148288249,0.7701239562749862,0.2305541187524795,-0.1140870302915573,0.0799249038100242,walking
1761225782103529700,-0.3222193721901625,-0.1957926212131977,0.7950888861835003,0.2112337350845337,-0.0947708189487457,0.0697250813245773,walking
1761225782113542700,-0.4776891161695122,-0.256708569946885,0.974467548212409,0.1714128255844116,-0.1022569611668586,0.0431986674666404,walking
1761225782123556600,-0.6254249779611826,-0.4227063568770885,1.2338801164209845,0.1155731603503227,-0.1327417492866516,0.0073599661700427,walking
1761225782133569800,-0.6728996997110546,-0.6759072109639644,1.5161597654759884,0.0446782112121582,-0.1846867054700851,-0.0327973067760467,walking
1761225782143582500,-0.7086046348206698,-0.8653238674044609,1.688328349995613,-0.034896083176136,-0.2296203374862671,-0.0751287117600441,walking
1761225782153596700,-0.6889290434919297,-0.938818142682314,1.690445488280058,-0.121988371014595,-0.2421121597290039,-0.1080914586782455,walking
1761225782163609600,-0.7164827477846294,-0.8792442562073469,1.5477414831757546,-0.2089692950248718,-0.1867308318614959,-0.1218190714716911,walking
1761225782173623600,-0.7204745938997715,-0.7574772406697273,1.1877204227924347,-0.2671814858913421,-0.0780456438660621,-0.1152549088001251,walking
1761225782183636700,-0.6917533071324229,-0.620910715407133,0.8442606211096048,-0.3054405748844147,0.0427006967365741,-0.0874779894948005,walking
1761225782193649400,-0.6905868937015534,-0.548334139496088,0.681609221997857,-0.323233425617218,0.0975437089800834,-0.0694143027067184,walking
1761225782203663600,-0.6558906241778284,-0.5969646071523428,0.6480348691761493,-0.3046802580356598,0.10441355407238,-0.0493807792663574,walking
1761225782213676800,-0.5649909675255418,-0.5807949781179428,0.5230255107164382,-0.2565934062004089,0.1155338510870933,-0.0225225295871496,walking
1761225782223690500,-0.5610584503822028,-0.5749561889618635,0.3498012796640395,-0.1781410276889801,0.1161578372120857,0.0105033461004495,walking
1761225782233703700,-0.5179544179972261,-0.5600947199165821,0.1917395464301109,-0.0941617116332054,0.1102291047573089,0.0305159371346235,walking
1761225782243716600,-0.577215293000266,-0.6168886202841997,0.1802040069371461,-0.0081631792709231,0.084317609667778,0.0304070133715868,walking
1761225782253730600,-0.6518816807974129,-0.725755822238326,0.2455716743826866,0.0567479096353054,0.0509668476879596,0.0169673711061477,walking
1761225782263743700,-0.7122846385076642,-0.7981675629764795,0.2781628613859415,0.111965537071228,0.0493191555142402,0.025927061215043,walking
1761225782273756400,-0.6067457041934132,-0.7716992427676915,0.2555202369451522,0.1221846118569374,0.0583328902721405,0.0319825559854507,walking
1761225782283770600,-0.5793751744478941,-0.8358072655409574,0.403087464171648,0.1046883463859558,0.0524806007742881,0.0286126099526882,walking
1761225782293783600,-0.6179482123397291,-0.858902309924364,0.5199819052368402,0.0772716403007507,0.0741808414459228,0.0008659333689138,walking
1761225782303797800,-0.8104675109706818,-0.7745201454073191,0.33532793315351,0.0674849897623062,0.1348476111888885,-0.016840711236,walking
1761225782313810700,-0.7697339340440928,-0.6691758568823337,0.0830231511235237,0.0685079097747802,0.1870722025632858,-0.0187419429421424,walking
1761225782323823600,-0.7572399247825146,-0.4939373633980751,-0.0762251615464687,0.0768250674009323,0.2534227073192596,-0.0265392120927572,walking
1761225782333837600,-0.8190577907919884,-0.2430909634828567,-0.2784545378088951,0.115521065890789,0.329610675573349,-0.0179177615791559,walking
1761225782343850500,-0.7047276472568511,-0.0556961682587862,-0.5405827947169543,0.1690070331096649,0.4184887707233429,0.0078105637803673,walking
1761225782353864700,-0.526520951616764,0.0540618450552225,-0.6482604946255683,0.2216670364141464,0.4944498538970947,0.0382976308465004,walking
1761225782363877600,-0.3605713877424597,0.0678483783453702,-0.5079489376157522,0.2609399855136871,0.5111699104309082,0.0726531445980072,walking
1761225782373890600,-0.1834997970795258,0.05585691177845,-0.2696118906617164,0.2916259765625,0.5004802346229553,0.119474709033966,walking
1761225782383904800,0.0431943044843152,0.0244452899485826,-0.2361702243089675,0.3321177661418915,0.526821494102478,0.1693451702594757,walking
1761225782393917400,0.1575389149362221,-0.03646072191298,-0.2819429644465446,0.3605741858482361,0.564095139503479,0.2116537541151046,walking
1761225782403931600,0.1846665758365765,-0.0590431405991315,-0.0938695393085479,0.3667902648448944,0.5399994254112244,0.2428569942712783,walking
1761225782413944800,0.2751030719565227,-0.1213175182044506,0.3238198661893606,0.3262878656387329,0.4402267336845398,0.2659481763839721,walking
1761225782423957500,0.4344031878789887,-0.2845020012795925,0.7088777526736258,0.2670849561691284,0.3145663738250732,0.291805237531662,walking
1761225782433971700,0.6100652040049434,-0.4284913700193166,0.8203875780910252,0.1886402070522308,0.2311952859163284,0.3196230232715606,walking
1761225782443984400,0.6411543158821761,-0.4877572134584188,0.6947872680008411,0.095963642001152,0.1833262741565704,0.3456186056137085,walking
1761225782453998600,0.5891441791923716,-0.4639560666322708,0.5008277074337005,0.0013172884937375,0.1689049899578094,0.3575170636177063,walking
1761225782464011800,0.4096963609173893,-0.3876040638357401,0.1840028146982192,-0.0693202540278434,0.1790858954191208,0.3421312570571899,walking
1761225782474024400,0.2457217138452455,-0.3125625591158866,-0.1834171237647533,-0.1253752559423446,0.2120278626680374,0.3093053996562958,walking
1761225782484038700,0.1425099438369274,-0.2073059488743543,-0.5139075537592173,-0.1671030074357986,0.2558951675891876,0.2772806286811828,walking
1761225782494051600,0.071546538743563,-0.0604337181746959,-0.8344248712718486,-0.1830364316701889,0.3164128363132477,0.2549646496772766,walking
1761225782504065500,0.0303185293635353,0.0759931063562631,-1.1484136637985705,-0.1650475263595581,0.4028727114200592,0.2470032721757888,walking
1761225782514078700,0.0222876004580408,0.2773328403025865,-1.4457652097791434,-0.1176555082201957,0.4998261332511902,0.2477140724658966,walking
1761225782524091600,0.0456659735611639,0.4738362401336431,-1.6101163985460996,-0.0396585203707218,0.5895938277244568,0.2517242133617401,walking
1761225782534105600,0.0653948294471018,0.6132160692512989,-1.6222446432352065,0.0568198151886463,0.6634587049484253,0.265067994594574,walking
1761225782544118000,0.0698077505185268,0.6354296546250582,-1.5369243210852146,0.1678676158189773,0.722883939743042,0.2642454802989959,walking
1761225782554132000,0.0614350955032743,0.566333322045207,-1.2737439247757196,0.2623256742954254,0.7461951375007629,0.2379542291164398,walking
1761225782564145200,0.0603298742077313,0.444477459180355,-0.8004489519119262,0.3278488516807556,0.7253484725952148,0.2038207799196243,walking
1761225782574158000,0.1333395991053432,0.3791080381691455,-0.2207891153037548,0.3487274944782257,0.6770190000534058,0.1712764203548431,walking
1761225782584172000,0.3306437939252704,0.3164724260360002,0.2613952664583921,0.3399420082569122,0.6408308744430542,0.147996187210083,walking
1761225782594185200,0.532267422846891,0.2901835540473461,0.6533639552444219,0.2868675887584686,0.6065664291381836,0.1348590850830078,walking
1761225782604198000,0.7018233771827072,0.3340980990976095,1.0020447064459324,0.2176955640316009,0.5691172480583191,0.137635052204132,walking
1761225782614212000,0.8569671040780842,0.3882090439915657,1.2393068176448343,0.1264583170413971,0.5321626663208008,0.1536105573177337,walking
1761225782624225000,0.9927448170505464,0.4227139556616544,1.370403971585631,0.0215519592165946,0.4653708934783935,0.1852137744426727,walking
1761225782634239000,1.0665985002253204,0.4166156387865543,1.4776789359122513,-0.0634825080633163,0.360879123210907,0.2265572249889373,walking
1761225782644252200,1.072676870290935,0.38443361710608,1.4201514605730772,-0.1066368892788887,0.2462661117315292,0.2645080983638763,walking
1761225782654265900,1.0264527331240474,0.4037070573747158,1.1246306371510029,-0.1146327629685401,0.1569993495941162,0.2773666381835937,walking
1761225782664279000,0.8330669538568705,0.4081687129586935,0.7345937932103872,-0.0984226316213607,0.116233006119728,0.2666165232658386,walking
1761225782674292000,0.5865076201437041,0.4099918367326259,0.3810048117011785,-0.0760512799024581,0.1166705638170242,0.2445658147335052,walking
1761225782684306000,0.4021207745639607,0.4146382012337446,0.1589583898127078,-0.0496607422828674,0.1139604747295379,0.2105573862791061,walking
1761225782694319000,0.2084074073102325,0.3395195396244526,0.0762315912872552,-0.0308289974927902,0.1226929798722267,0.1642572581768036,walking
1761225782704332000,0.0357400886213872,0.3001139964312315,-0.0222492412090301,-0.0246938448399305,0.1569960564374923,0.107792280614376,walking
1761225782714346000,-0.1112175096736289,0.2882920412123203,-0.0982078607738018,-0.024651501327753,0.1983080804347992,0.0539149343967437,walking
1761225782724359000,-0.1365635661205276,0.3322925109803676,-0.1296960549712181,-0.0366612263023853,0.260101169347763,0.0156440623104572,walking
1761225782734373000,-0.0341743736746255,0.375834131065011,-0.1697007331013679,-0.0361224710941314,0.3464291393756866,0.0013080009957775,walking
1761225782744386000,0.1120241133487783,0.4492746303290128,-0.1332253981411457,-0.0345503240823745,0.4053096175193786,-0.0003972616977989,walking
1761225782754399000,0.244771938839741,0.4917763859719037,0.044157706156373,-0.0404857099056243,0.415209412574768,0.0049594203010201,walking
1761225782764413000,0.4145117253098637,0.4986497788727283,0.2957891189694404,-0.0441242828965187,0.387717992067337,0.0303300321102142,walking
1761225782774425900,0.6344150707550347,0.4614759402543306,0.5019990893006324,-0.0474963784217834,0.3326722979545593,0.0613425411283969,walking
1761225782784440000,0.7500777050029486,0.3758201025396585,0.6814058083802461,-0.0433238185942173,0.256153255701065,0.0787968710064888,walking
1761225782794453000,0.7972891727067529,0.2557096220374107,0.7995821059495211,-0.0289672464132308,0.1761977076530456,0.0941875427961349,walking
1761225782804466000,0.7881845866877585,0.2164654068857431,0.8611655786812304,-0.0138702131807804,0.0951683446764946,0.111392818391323,walking
1761225782814480100,0.7245209466811269,0.2068412539720535,0.8604255739688873,0.0054693953134119,0.0271573364734649,0.1237632036209106,walking
1761225782824493000,0.6464568792697042,0.2182885306596755,0.862835557720065,0.015395276248455,-0.0338826030492782,0.1343785226345062,walking
1761225782834507000,0.5121505905566737,0.1859387511968612,0.8815367510586977,0.0125081436708569,-0.0998861193656921,0.1437155604362487,walking
1761225782844520200,0.4226140754837542,0.1318430038720369,0.9175368697226048,-0.0007038912735879,-0.1741073429584503,0.1480120569467544,walking
1761225782854532900,0.3313254560464992,0.0124292734622955,0.9263982215702532,-0.028010880574584,-0.2327232509851455,0.1355998516082763,walking
1761225782864547000,0.1600630996515974,-0.1194277589350938,0.8080863149225711,-0.0614120438694953,-0.25600466132164,0.1099743023514747,walking
1761225782874560000,-0.0488536545534152,-0.2409843465924263,0.6025865386873483,-0.0975719168782234,-0.2463075369596481,0.0749715790152549,walking
1761225782884573000,-0.2112591252132318,-0.284163563105464,0.383357512307167,-0.1312445104122162,-0.2022955566644668,0.0325874909758567,walking
1761225782894587100,-0.331723588518612,-0.2676531578093767,0.2093640504479408,-0.1575602740049362,-0.1443089544773101,-0.0053577618673443,walking
1761225782904599800,-0.3701652185831218,-0.2631400642991066,0.024789573341608,-0.1676751524209976,-0.0774440169334411,-0.0503281541168689,walking
1761225782914614000,-0.3370599445778876,-0.2781938410460949,-0.1129547635287046,-0.1634338051080703,-0.0293989963829517,-0.0932612419128418,walking
1761225782924627000,-0.2920098926916718,-0.2462386138588189,-0.0867746126115322,-0.1579486727714538,-0.0248760059475898,-0.1263158023357391,walking
1761225782934639900,-0.1850272258425131,-0.2469014616817235,0.1019277580797672,-0.1516806483268737,-0.073255255818367,-0.1463923156261444,walking
1761225782944654000,0.0038440808080602,-0.2970996170461177,0.2932335892677307,-0.1490798443555832,-0.1541219502687454,-0.138601154088974,walking
1761225782954667000,0.281365000161808,-0.2874135048121213,0.3994575832366943,-0.1412466913461685,-0.2488671094179153,-0.1210884749889373,walking
1761225782964681000,0.4447294246474281,-0.2618254745692014,0.3916711671441793,-0.1205639988183975,-0.3184139132499695,-0.0903440043330192,walking
1761225782974694000,0.5234157886756584,-0.1945633716791868,0.2280231582105159,-0.0846547335386276,-0.3457312881946563,-0.0502160303294658,walking
1761225782984707000,0.4653732399538159,-0.1478624107807874,0.0584632948845624,-0.0491708144545555,-0.3615176081657409,-0.0232138205319643,walking
1761225782994721000,0.3543847715293988,-0.1879249565780162,-0.0250204594880342,0.0005679810419678,-0.3939839601516723,-0.0142272477969527,walking
1761225783004734000,0.2377308429555036,-0.3362538158267736,-0.0830091225981712,0.0551811046898365,-0.4299073815345764,-0.0291610602289438,walking
1761225783014748200,0.0961274195042438,-0.4630629171848296,-0.1758089868485927,0.1115080267190933,-0.4611947238445282,-0.0571072064340114,walking
1761225783024761000,-0.0640862036671023,-0.5645049375742673,-0.2598281632721424,0.1774000525474548,-0.4781299233436584,-0.1003556549549102,walking
1761225783034774000,-0.2153651905588805,-0.6068459496974945,-0.3121989865005016,0.238580584526062,-0.4977843463420868,-0.1495876461267471,walking
1761225783044788000,-0.2654526703567244,-0.6294552563905715,-0.2915408138751983,0.2886570394039154,-0.518152117729187,-0.2065004110336303,walking
1761225783054801000,-0.2664339182127267,-0.6700456254541873,-0.1918961982965469,0.3215606808662414,-0.5338355302810669,-0.2592658698558807,walking
1761225783064815000,-0.1807319946003146,-0.6824030027240514,-0.1037993971705436,0.3440189957618713,-0.5604007244110107,-0.2947220206260681,walking
1761225783074828000,-0.0701576416684314,-0.6313800869733095,0.0305307473421096,0.3566250503063202,-0.5958719253540039,-0.3222849369049072,walking
1761225783084841000,0.0075739058529958,-0.5751531728386878,0.1579810692131519,0.3588804900646209,-0.6213085651397705,-0.3564034700393677,walking
1761225783094855200,0.073989182655327,-0.6640928545296192,0.2252174531400203,0.3475439250469208,-0.6243070363998413,-0.385823130607605,walking
1761225783104867800,0.1949944200402125,-0.7258639587879181,0.2874035679399967,0.3085835576057434,-0.644286036491394,-0.4269819557666778,walking
1761225783114881000,0.1641867554528638,-0.8236807744175195,0.5225631539016962,0.218499481678009,-0.705174446105957,-0.468021810054779,walking
1761225783124895000,0.0758485833190381,-0.9119090929687024,0.8216495608508586,0.091672658920288,-0.7686260938644409,-0.5233051180839539,walking
1761225783134908000,-0.0586093522917479,-0.921689897748828,0.885508577299118,-0.0540912002325058,-0.8085501194000244,-0.5748857259750366,walking
1761225783144922000,-0.1820706775918603,-0.8172557098060845,0.7720826891273259,-0.1976064443588256,-0.8201400637626648,-0.6211047172546387,walking
1761225783154934800,-0.3938822307897731,-0.6410533397257328,0.5343769258141517,-0.3106541633605957,-0.8448176980018616,-0.6716371178627014,walking
1761225783164948000,-0.5856659086225554,-0.4055944785565137,0.2182031904637813,-0.4043746888637543,-0.8401748538017273,-0.7263604998588562,walking
1761225783174962000,-0.7134558742441236,-0.2145394072592258,-0.1477256326586008,-0.4596304595470428,-0.7810894250869751,-0.7878078818321228,walking
1761225783184974800,-0.7851785367395728,-0.0197509946525096,-0.564427196162939,-0.4704453349113464,-0.6780278086662292,-0.8338439464569092,walking
1761225783194989000,-0.7746832270145416,0.2706073314398527,-0.9555535889059305,-0.4392157793045044,-0.5195875763893127,-0.8305898308753967,walking
1761225783205002000,-0.5815511667801067,0.6883242094665766,-1.3648159423202275,-0.3653299510478973,-0.3339513838291168,-0.7787002325057983,walking
1761225783215015000,-0.2522957219406962,0.8812403984606265,-1.649891359573603,-0.2517956495285034,-0.1623391509056091,-0.6919304728507996,walking
1761225783225028900,0.0675088076600805,0.9847375978142022,-1.670565898811817,-0.1197334229946136,-0.0698906779289245,-0.6156653761863708,walking
1761225783235042000,0.293498852607794,0.8707336174935102,-1.3833248279571533,0.0062439497560262,-0.0783749818801879,-0.5522760152816772,walking
1761225783245056000,0.51510417966526,0.7241530632168054,-0.9235252964824436,0.1141078397631645,-0.1558519452810287,-0.477743536233902,walking
1761225783255069000,0.6535148349571973,0.6212982534199952,-0.5005138191789389,0.1844174265861511,-0.2453266978263855,-0.4028818011283874,walking
1761225783265081900,0.70047758859694,0.4700555525511503,-0.1403933900743723,0.2246899157762527,-0.315735250711441,-0.3351078927516937,walking
1761225783275096000,0.6755873313598334,0.311478271010518,0.125576344692707,0.2317603528499603,-0.3925304114818573,-0.2751063406467438,walking
1761225783285109000,0.6630455374337733,0.1864934624701738,0.3600824351817369,0.2220705449581146,-0.458007276058197,-0.2318171709775924,walking
1761225783295122000,0.5192818672087043,0.0710948129206895,0.4178536561489105,0.19562828540802,-0.4616715312004089,-0.2080662995576858,walking
1761225783305135900,0.2769118018789216,0.0082557871699333,0.3372819898307323,0.15915247797966,-0.4225281178951263,-0.2023221105337143,walking
1761225783315149000,0.0008394830314442,0.0063145899742841,0.2608171743094921,0.1070661023259162,-0.3623848855495453,-0.213776096701622,walking
1761225783325163000,-0.1388199302125722,0.0154126731872558,0.2842483187794685,0.0398584082722663,-0.2926045060157776,-0.229141280055046,walking
1761225783335176000,-0.2060083102792501,0.023605331993103,0.316260244590044,-0.0403882265090942,-0.2220339328050613,-0.2447101175785064,walking
1761225783345189000,-0.1910830552827566,0.0509288077265024,0.3468710714310407,-0.1201182827353477,-0.159907191991806,-0.238174483180046,walking
1761225783355202800,-0.0846395733442157,0.2019593271493911,0.3538590306222439,-0.1901626288890838,-0.1197251603007316,-0.2098688185214996,walking
1761225783365216000,0.0986705098494887,0.3623813597738742,0.3042892362892627,-0.2242390364408493,-0.1008760705590248,-0.1573445349931717,walking
1761225783375230000,0.2731345848951488,0.489053098487854,0.2032131266027688,-0.2240816354751587,-0.1202489733695983,-0.0882762446999549,walking
1761225783385243000,0.4141505273146554,0.6048118135213851,0.0549631778091192,-0.1834283322095871,-0.1289331167936325,-0.0030707628466188,walking
1761225783395256000,0.3875925195284188,0.6939028863817452,-0.1850017626076936,-0.1155656650662422,-0.1307872086763382,0.0681466907262802,walking
1761225783405270000,0.1946955832241103,0.6668669954180717,-0.3630366088122129,-0.0224292278289794,-0.1384196877479553,0.1260893642902374,walking
1761225783415283000,0.0013947788266465,0.6201075823307037,-0.5139350262880324,0.0853755325078964,-0.1307505816221237,0.158415600657463,walking
1761225783425296100,-0.1911381830034777,0.53712184060812,-0.5490384883731604,0.185211181640625,-0.0993935391306877,0.1683548837900161,walking
1761225783435309800,-0.421915316097252,0.3648720075458288,-0.3911947818040847,0.2480703145265579,-0.0757108479738235,0.1509551256895065,walking
1761225783445323000,-0.5644286574676632,0.182028299754858,-0.0034860885500907,0.2648724317550659,-0.073537178337574,0.1276729702949524,walking
1761225783455337000,-0.5840898914774879,-0.0308095642834901,0.4304997872322798,0.2493795305490493,-0.0790528506040573,0.1075322851538658,walking
1761225783465350000,-0.540030640726909,-0.1506932502925395,0.7597615522146225,0.2073411494493484,-0.0773060545325279,0.0811779797077179,walking
1761225783475363000,-0.505660826678574,-0.2066431010514497,0.9748638540536164,0.1515524536371231,-0.0491383299231529,0.0557796731591224,walking
1761225783485377000,-0.5073208323126659,-0.1767676027476787,1.0437497587531803,0.0907101482152938,0.0270719956606626,0.0270134881138801,walking
1761225783495390000,-0.5253248371673748,-0.15321020154953,1.066052775976062,0.0221207067370414,0.1261330544948578,0.0068901106715202,walking
1761225783505404000,-0.4407544200692325,-0.0827098473906517,1.145716095277667,-0.0494313351809978,0.1960034966468811,-0.0175851210951805,walking
1761225783515417000,-0.3637737274477258,-0.118886491665244,1.2858943812966346,-0.1221348270773887,0.2218010127544403,-0.0357268415391445,walking
1761225783525430000,-0.3192264374518767,-0.1955377696692943,1.346570091533661,-0.1820643842220306,0.2287353128194809,-0.0395599976181983,walking
1761225783535444000,-0.2118597397211939,-0.1274140815138816,1.345698569396138,-0.2322540432214737,0.1929924935102462,-0.0222004484385252,walking
1761225783545457400,-0.101609558976069,-0.0510913048118352,1.2785130388736723,-0.2535174190998077,0.1412500888109207,0.0138681307435035,walking
1761225783555470300,0.0095189024409279,-0.0172416421800851,1.0961205819815396,-0.2601303160190582,0.0755437761545181,0.0445386916399002,walking
1761225783565484300,0.0270844428131356,0.0131155021607875,0.963413654756546,-0.2594119906425476,0.0074959048070013,0.0801539570093154,walking
1761225783575497200,-0.0363869625570252,0.0718389092862606,0.8484469668835402,-0.2565347254276275,-0.0338075943291187,0.1229080781340599,walking
1761225783585511200,-0.0693296664116904,0.1267225921183824,0.6465133586972952,-0.234031543135643,-0.0472989007830619,0.170485720038414,walking
1761225783595524400,-0.1249856122579425,0.1635959864854812,0.344669761994481,-0.1937435120344162,-0.0236092843115329,0.2215811163187027,walking
1761225783605537300,-0.252070388752222,0.2104641206443309,-0.0059071782171726,-0.1249188706278801,0.048038225620985,0.255637526512146,walking
1761225783615551200,-0.4785729863319545,0.1788257043212652,-0.2755015332221984,-0.032629158347845,0.1238024979829788,0.2637298107147217,walking
1761225783625564400,-0.6481358453325927,0.1035293480575084,-0.3484294067889452,0.0562036335468292,0.1649272441864013,0.2599879503250122,walking
1761225783635578000,-0.7434263573549688,-0.0510702620238065,-0.1985246765255928,0.1265259981155395,0.1831962615251541,0.2538504302501678,walking
1761225783645591300,-0.7382258661024272,-0.251307587686181,0.0484299766480922,0.1725143939256668,0.1944039762020111,0.236456423997879,walking
1761225783655604500,-0.6467042050942778,-0.434421344590187,0.341402284631133,0.1795320808887481,0.1859087646007537,0.2184614539146423,walking
1761225783665618200,-0.5745260173836723,-0.5838105265468359,0.7411369312435389,0.1401643604040146,0.1581367701292038,0.1993806511163711,walking
1761225783675631400,-0.513153009064868,-0.7611562214434147,1.102379057854414,0.0622517205774784,0.1379758417606353,0.1837614774703979,walking
1761225783685644000,-0.4781408785250037,-0.8665425955444573,1.3096096034049989,-0.0306839179247617,0.1256137490272522,0.1651636362075805,walking
1761225783695658200,-0.444535692173615,-0.8702852892041206,1.263092182379961,-0.1175090968608856,0.1692517697811126,0.1489729434251785,walking
1761225783705671400,-0.5591453833024949,-0.8216589132010936,1.042144661644101,-0.1964108347892761,0.2395160794258117,0.1289611607789993,walking
1761225783715685000,-0.6765915399663149,-0.7612514985114336,0.8203349711209535,-0.2483201026916504,0.3153043091297149,0.1098670959472656,walking
1761225783725698300,-0.6562999356310815,-0.6482756921947002,0.5599824917137622,-0.2600176930427551,0.3958035409450531,0.1046334132552146,walking
1761225783735711200,-0.602573606140539,-0.5398942279309034,0.3159557086855173,-0.2359653413295745,0.4654542505741119,0.1046611070632934,walking
1761225783745725200,-0.5632361597474664,-0.4518938729166984,0.2323006893992424,-0.1898542791604995,0.4852572381496429,0.1164439916610717,walking
1761225783755738400,-0.4360633396435528,-0.3594733633726835,0.3095826665222644,-0.1407160311937332,0.436537891626358,0.1294058710336685,walking
1761225783765752300,-0.3039407881777733,-0.3678986618906259,0.4650339249968528,-0.1106418818235397,0.3903248012065887,0.1568349152803421,walking
1761225783775765200,-0.2027014324872754,-0.4183586830615997,0.458328874400258,-0.0707453265786171,0.3614292442798614,0.2084419131278991,walking
1761225783785778200,-0.0700972532507032,-0.3585550794839859,0.2825444374710321,-0.0238769724965095,0.3581878840923309,0.2509054541587829,walking
1761225783795792400,-0.1113806826123967,-0.4054740670472383,0.066237436017394,0.0182055011391639,0.4152050912380218,0.2739095985889435,walking
1761225783805805300,-0.2250640892092138,-0.4354384126782417,-0.1162906299531459,0.0566366352140903,0.4890909790992737,0.2860731780529022,walking
1761225783815818200,-0.2717508571854792,-0.4255634998738765,-0.1305576402366161,0.0796748399734497,0.5119092464447021,0.3042684495449066,walking
1761225783825832400,-0.1908983646319247,-0.3949585182517767,0.0608656798511743,0.0812771096825599,0.5015394687652588,0.3395241200923919,walking
1761225783835845000,-0.0331470307877287,-0.4347106829255819,0.1980044520437717,0.0753044411540031,0.4994904696941376,0.3754083514213562,walking
1761225783845859300,0.0716436607087962,-0.5611071118295192,0.2234586267739534,0.0491985492408275,0.5349412560462952,0.3951865136623382,walking
1761225783855872300,0.0810365621498785,-0.7081313182204961,0.2041927852898836,0.0242969263345003,0.5824110507965088,0.3998246788978576,walking
1761225783865885200,0.0668370002125855,-0.8504384329617023,0.2759188818514347,-0.0206279959529638,0.6031064987182617,0.3881508708000183,walking
1761225783875899400,0.0603214899718761,-0.9229384365051984,0.3925684082448482,-0.0583282336592674,0.5800419449806213,0.3627406060695648,walking
1761225783885912000,0.0951175940077286,-0.980513842639327,0.3648451195389032,-0.0912110283970832,0.5252707600593567,0.3395131230354309,walking
1761225783895925200,0.127681235416932,-0.936786929115653,0.2348386834442615,-0.1087362319231033,0.415857195854187,0.3089655935764313,walking
1761225783905939500,0.1284580832746345,-0.868900556847453,0.1336415777266025,-0.1236319914460182,0.2844568192958832,0.2886954545974731,walking
1761225783915952000,0.1331443231284152,-0.6553250261843204,-0.0443792399525642,-0.1373933553695678,0.1782744526863098,0.2773272097110748,walking
1761225783925966300,0.0594851944113615,-0.3890957636982202,-0.3605962299227714,-0.149959310889244,0.1457469165325164,0.2713669240474701,walking
1761225783935979300,-0.0956850003658328,-0.1206271978527307,-0.7629325834661722,-0.1719530373811721,0.1951866447925567,0.2601984143257141,walking
1761225783945992200,-0.2477004300396889,0.1308247667402029,-1.10639589228034,-0.1877093166112899,0.295083224773407,0.2587455809116363,walking
1761225783956006400,-0.3388035003095865,0.3523012797862291,-1.4094272374629973,-0.1829297542572021,0.435736745595932,0.2638620436191559,walking
1761225783966019000,-0.2512153062928468,0.6045481941491365,-1.67774032048583,-0.1535693407058715,0.5745896697044373,0.2930197715759277,walking
1761225783976033300,-0.1306084297089371,0.8657078982859849,-1.7445792295277118,-0.1058942228555679,0.6757873892784119,0.3431982696056366,walking
1761225783986046200,0.0580128888025181,1.0005489149302245,-1.6621914536982774,-0.0237360913306474,0.7471809387207031,0.4059261977672577,walking
1761225783996059100,0.2561708828736097,0.9568120645344256,-1.4537369193106888,0.0666433423757553,0.7813303470611572,0.4623649716377258,walking
1761225784006073300,0.3067954469565302,0.7765057662665843,-1.114609593874216,0.163486897945404,0.7553764581680298,0.4879522919654846,walking
1761225784016086300,0.289960010957159,0.5691267521560192,-0.606716185837984,0.2365707010030746,0.6808146238327026,0.473318487405777,walking
1761225784026099200,0.2433983671979047,0.3233627700716256,-0.14062135361135,0.3001969754695892,0.6017355918884277,0.4370423257350921,walking
1761225784036113200,0.2688044102037325,0.1330658236652612,0.1819675094783306,0.3451665639877319,0.508257269859314,0.4036915600299835,walking
1761225784046126300,0.3862727421667427,0.0851122323572635,0.5443552989929914,0.367824912071228,0.3814412653446197,0.377441793680191,walking
1761225784056140300,0.4969385910406708,0.020358312895894,0.8917612079530954,0.3457374572753906,0.2615707814693451,0.3448148667812347,walking
1761225784066153200,0.491782377321273,-0.119912327581644,1.1982020693182944,0.2847248315811157,0.1352583318948745,0.2986027598381042,walking
1761225784076166100,0.4184311637759208,-0.2042413006067276,1.4439935239315032,0.1950058788061142,0.0223616026341915,0.2551013529300689,walking
1761225784086180000,0.3759420484188944,-0.1937783587813377,1.4933686724752189,0.081129103899002,-0.0386340841650962,0.2189037352800369,walking
1761225784096193300,0.3038755591881461,-0.15975626219213,1.3575614411473274,-0.0360135026276111,-0.033269677311182,0.1890121549367904,walking
1761225784106206200,0.2109091792644001,-0.0785340230107307,1.0538087959527969,-0.146124929189682,-0.0010544555261731,0.1644376516342163,walking
1761225784116220200,0.0471358999832533,0.0794365248084068,0.7813561289072036,-0.2561435997486114,0.0403180196881294,0.124516062438488,walking
1761225784126233300,-0.1531563342041336,0.1727344017088413,0.5621013835638761,-0.3368255198001861,0.1156609430909156,0.0858322456479072,walking
1761225784136247000,-0.250392957059294,0.2414221534878015,0.1917407154738903,-0.3662875592708587,0.22303107380867,0.0514569617807865,walking
1761225784146260200,-0.2929069876618683,0.3383142554879188,-0.2024561707556247,-0.3607142865657806,0.3247445523738861,0.0069422381930053,walking
1761225784156273400,-0.3750426884263754,0.4659650683671236,-0.3604582827568054,-0.3257589638233185,0.4238042831420898,-0.0310043450444936,walking
1761225784166287000,-0.355020804410614,0.5863607955515384,-0.4604015890210867,-0.2513858377933502,0.5244572162628174,-0.0476467013359069,walking
1761225784176300300,-0.2206808326236903,0.6318710853606462,-0.5251245288223028,-0.1385000199079513,0.5917417407035828,-0.0724662989377975,walking
1761225784186313200,-0.0742043049770407,0.582678307646513,-0.3960883990645408,-0.023671455681324,0.5714449882507324,-0.0992035791277885,walking
1761225784196327200,0.0488351964481174,0.5389689297795296,0.1695253765344619,0.0609432980418205,0.4458127915859222,-0.1067376658320427,walking
1761225784206340400,0.3003079481007531,0.4464180718541145,0.764462277251482,0.1346589177846908,0.2646828889846802,-0.0828436389565467,walking
1761225784216354000,0.6731904993511736,0.3663245444417,1.22297761413455,0.1690624356269836,0.070597305893898,-0.051630325615406,walking
1761225784226367200,0.9093556090936064,0.1915752957791089,1.5632178692489862,0.1518670320510864,-0.0906919911503791,-0.0303793810307979,walking
1761225784236380400,0.9562842412680388,0.043130116674304,1.7856079900085926,0.094184823334217,-0.2090660482645034,-0.0097265690565109,walking
1761225784246394000,0.8985173311498016,0.0016366612911224,1.7795108421772718,-0.0055168024264276,-0.2515011727809906,0.0300226248800754,walking
1761225784256407300,0.7774982844352721,-0.0102981066524982,1.511425138169527,-0.0976224914193153,-0.2316118627786636,0.0764724090695381,walking
1761225784266421200,0.5754624945161864,0.0142126497477293,1.0562392379701138,-0.1561144441366195,-0.1612128615379333,0.1008482053875923,walking
1761225784276434200,0.2671397283945232,0.021453122395277,0.6472200456619263,-0.196971595287323,-0.0849670842289924,0.0644907280802726,walking
1761225784286447400,-0.1016295788507908,-0.1148445227980613,0.4393956258714199,-0.1955645084381103,-0.0092408452183008,-0.0078746899962425,walking
1761225784296461300,-0.3720125269502401,-0.2379080078870057,0.2937766101032495,-0.2002490162849426,-0.0498902723193168,-0.0952697843313217,walking
1761225784306474200,-0.3203518978178501,-0.3821966518342495,0.4303898971170187,-0.2061995565891266,-0.1592892259359359,-0.1411976367235183,walking
1761225784316487400,-0.0859610129400156,-0.4106465012490749,0.5366688361436128,-0.1915242075920105,-0.2536322176456451,-0.146343395113945,walking
1761225784326501000,0.1800743892081081,-0.3255670021176338,0.4639578201979398,-0.174330860376358,-0.3317349851131439,-0.1387053579092025,walking
1761225784336514300,0.3466422311112284,-0.2837596584796905,0.4693032728791236,-0.1542966961860656,-0.387618750333786,-0.1216438189148902,walking
1761225784346527200,0.4585850411184132,-0.2149906581580638,0.4727513675063848,-0.1246613264083862,-0.4351944923400879,-0.1055761128664016,walking
1761225784356541200,0.5306125317793339,-0.226752992144227,0.439214424085617,-0.1022412404417991,-0.5089313387870789,-0.1093929558992385,walking
