timestamp,acc_x,acc_y,acc_z,gyr_x,gyr_y,gyr_z,activity
1761225788216361200,0.581204691429995,-0.3643541211515664,-0.4168061929225921,-0.1873463094234466,0.1835570484399795,0.179289698600769,walking
1761225788226374400,0.8798429527528584,-0.2031967599898576,-0.2532651514947414,-0.0839919969439506,0.1311639547348022,0.2259029000997543,walking
1761225788236387300,1.0421922271128743,-0.2853209164470434,0.1093874264359474,-0.0167991165071725,0.0164775811135768,0.2564024925231933,walking
1761225788246401300,1.000830873676762,-0.6107113929539919,0.2716033567398786,0.0051410058513283,-0.0788782685995101,0.2815666198730469,walking
1761225788256414200,0.9935705272849648,-0.8988380144715309,0.2564344291806221,0.0145177291706204,-0.187955766916275,0.2949825525283813,walking
1761225788266428200,0.8880308623183518,-1.064499116793275,0.1325777478873729,0.0110944397747516,-0.2552502751350403,0.3096458315849304,walking
1761225788276441300,0.6528710571609437,-1.006198318994045,-0.0315413856893777,0.0023536789231002,-0.273756593465805,0.3039525151252746,walking
1761225788286454300,0.3834608996164053,-1.0028525156974792,-0.2014993084222078,-0.0050911251455545,-0.2414615899324417,0.2878111898899078,walking
1761225788296468200,0.2440150012589059,-0.936652489081025,-0.4671832119852304,-0.0029185183811932,-0.1421973258256912,0.277860015630722,walking
1761225788306481400,0.1832282866617664,-0.8457178341805934,-0.5698819544374942,0.0094729037955403,-0.0349877774715423,0.2711206376552582,walking
1761225788316494300,0.2112876206553541,-0.7225415363669395,-0.4632955568969249,0.020636074244976,0.030140358954668,0.2752711772918701,walking
1761225788326508300,0.2377148782013915,-0.5944651915520429,-0.416090153607726,0.0361647009849548,0.082275204360485,0.2818118929862976,walking
1761225788336521500,0.1954340718328021,-0.5937497367590665,-0.325475232180953,0.0391967110335826,0.1288038194179535,0.2687930166721344,walking
1761225788346534100,0.0886362782975658,-0.6676496702283621,-0.1631470736742019,0.0318082422018051,0.1416969448328018,0.2172836810350418,walking
1761225788356548400,0.1089422399517148,-0.6502034453868866,-0.027214170140028,0.0307778622955083,0.1302794367074966,0.1761732548475265,walking
1761225788366561300,0.2120970373420976,-0.5127390945017337,0.066472413817048,0.0376723483204841,0.0973723456263542,0.153553158044815,walking
1761225788376574200,0.3355673679325729,-0.3859054432243108,0.2344458847343921,0.031645618379116,0.0240307543426752,0.1572621315717697,walking
1761225788386588400,0.3921137963451445,-0.2166752502441406,0.4362216720104217,0.0209522414952516,-0.0845442190766334,0.1625926792621612,walking
1761225788396601000,0.3408794298008084,-0.1635895567446947,0.4401765471160411,-0.0026356421876698,-0.1871273070573806,0.1664225608110427,walking
1761225788406614300,0.1851474181560799,-0.0934253026723861,0.1046031147688627,-0.0059050028212368,-0.2218607068061828,0.1712470799684524,walking
1761225788416628500,-0.0192574024492874,0.1288040745675563,-0.4788894318699836,0.0287320706993341,-0.1497721225023269,0.1820459216833114,walking
1761225788426641200,-0.2281445195678621,0.3984311627984047,-0.8475964875340462,0.086193174123764,-0.0531841069459915,0.1875196993350982,walking
1761225788436655400,-0.4081589587496593,0.5422668022811412,-0.848667331635952,0.1552135050296783,-0.0094491448253393,0.1812247931957245,walking
1761225788446668300,-0.4432683391189202,0.5332078820347785,-0.6276075826972722,0.2108345180749893,-0.010922122746706,0.1779978722333908,walking
1761225788456681200,-0.4662465156570076,0.4106096763700246,-0.4263210402429103,0.2419607490301132,-0.0141288340091705,0.1719999015331268,walking
1761225788466695400,-0.5860468707641586,0.2550572956085205,-0.1998264067739248,0.2519300878047943,-0.0124927926808595,0.163115456700325,walking
1761225788476708000,-0.653157765147835,0.1610673447906971,-0.0541957005679607,0.2471696585416793,-0.0024801068939268,0.1418141573667526,walking
1761225788486721300,-0.6993857017070054,0.1211649579912424,0.012073884153366,0.2606663405895233,0.0130133191123604,0.094209536910057,walking
1761225788496735200,-0.7162170095205307,0.1871206544578075,0.1239431905329227,0.2734394073486328,0.0067072198726236,0.0484007634222507,walking
1761225788506748200,-0.6445676314570009,0.2720645445108413,0.3161848412662744,0.2557559311389923,-0.0246118362993001,0.008707114495337,walking
1761225788516761300,-0.5636618378136307,0.2424444822728634,0.4827355859041213,0.2131490707397461,-0.0484117083251476,0.001973578473553,walking
1761225788526775300,-0.4632465666560456,0.3043377516061067,0.5556137751102447,0.1563154309988021,-0.0448210835456848,0.0180990379303693,walking
1761225788536788200,-0.4753477406751364,0.3771212482661009,0.5138835883617401,0.1042689979076385,-0.0358427688479423,0.0299756713211536,walking
1761225788546801200,-0.590248815966025,0.3796434602200985,0.4804577041000127,0.0577436536550521,-0.0459474511444568,0.0186876431107521,walking
1761225788556815000,-0.7260382924415171,0.3508446512371301,0.4190682926356792,0.0272714998573064,-0.0839720666408538,-0.0093037765473127,walking
1761225788566828300,-0.8481832744460552,0.3467909919321537,0.2004360631048679,0.0277465917170047,-0.1093880534172058,-0.0420236065983772,walking
1761225788576842000,-0.9594210779890416,0.3548591475754976,-0.083785367667675,0.0536620803177356,-0.1164116114377975,-0.0785400718450546,walking
1761225788586855200,-1.0530331354051827,0.3987245927870273,-0.3966115461558103,0.0993345081806182,-0.0957875773310661,-0.1171543598175048,walking
1761225788596868000,-1.1806243270516394,0.4686953701138496,-0.6143167239695787,0.1381261199712753,-0.0148040475323796,-0.1572509109973907,walking
1761225788606882000,-1.224170184919983,0.5644038152873516,-0.6169862354397774,0.1772065162658691,0.0919456705451011,-0.1826532483100891,walking
1761225788616895200,-1.1406911067225038,0.6287666896045208,-0.4280249215513467,0.1996921151876449,0.1714088022708892,-0.1905671060085296,walking
1761225788626908200,-0.9835461960725486,0.7560854940503835,-0.0561374822854995,0.2045263051986694,0.2234320342540741,-0.1823877990245819,walking
1761225788636922000,-0.8816608158297836,0.8012000625401735,0.3373790204644203,0.1793029755353927,0.2138249427080154,-0.1515577137470245,walking
1761225788646935300,-0.8228893317788839,0.6491840392112731,0.4943792619466781,0.1325511485338211,0.1955611705780029,-0.1331860721111297,walking
1761225788656948000,-0.7335708799034356,0.423386155834794,0.3717109136551618,0.0955294817686081,0.2230545729398727,-0.1135159656405448,walking
1761225788666962200,-0.8369596504464745,0.3406032432079315,0.259612474694848,0.0748701989650726,0.2573435306549072,-0.1384192109107971,walking
1761225788676975400,-1.1962239011131226,0.2716618089288473,0.5461550418913365,0.0406160838901996,0.2313614934682846,-0.2116263210773468,walking
1761225788686988000,-1.4282659395761788,0.1016343280911445,0.7982032188117504,0.0163438282907009,0.161457285284996,-0.3391892313957214,walking
1761225788697002200,-1.5225909675672649,-0.091288290643692,0.9465162959694862,-0.0066821277141571,0.001984535716474,-0.4678316414356231,walking
1761225788707015000,-1.368933168380707,-0.1431470726966857,1.0922469554185867,-0.0310184061527252,-0.1963338106870651,-0.5663130879402161,walking
1761225788717028000,-1.3624644107580184,-0.1182838495969772,1.0381178903460502,-0.0724225714802742,-0.3409810066223144,-0.6145607829093933,walking
1761225788727042300,-1.2472319115556776,-0.028126024287939,0.7693529719024896,-0.114015556871891,-0.4035045802593231,-0.6377843618392944,walking
1761225788737055000,-1.296944621490687,0.1339385148465633,0.5013607913970947,-0.1619404852390289,-0.3900540173053741,-0.6415380835533142,walking
1761225788747068200,-1.262125967696309,0.2631862415283918,0.5008768072724342,-0.2363028526306152,-0.3723658323287964,-0.6171770691871643,walking
1761225788757082000,-0.9629927259307354,0.2704050868660211,0.6840028391361236,-0.3402740061283111,-0.3934503495693207,-0.541968584060669,walking
1761225788767095000,-0.6670885292142629,0.2647965993344783,0.7701227872312069,-0.4408407807350158,-0.4102080464363098,-0.4311012327671051,walking
1761225788777109200,-0.3957143781203776,0.0214683199644088,0.4475345086634159,-0.5054957270622253,-0.3780146837234497,-0.3053129613399505,walking
1761225788787122200,-0.3265356644866988,-0.055644145810604,0.1493979497849941,-0.5300954580307007,-0.3264372944831848,-0.1803513616323471,walking
1761225788797135000,-0.4627719714142382,-0.0180786775261163,-0.2365051553517579,-0.5017080307006836,-0.2714280784130096,-0.0610372237861156,walking
1761225788807149000,-0.6473297896467148,0.1236579438507556,-0.6050386080145835,-0.4132042825222015,-0.2209768891334533,0.0298085231333971,walking
1761225788817162000,-0.8453427903231233,0.1234457624047994,-0.7646615992158651,-0.3029669821262359,-0.1873930990695953,0.0850992053747177,walking
1761225788827175200,-1.1009756207972765,-0.1487520530968904,-0.6116109721422195,-0.186675563454628,-0.2021409571170807,0.0918952003121376,walking
1761225788837189000,-1.2932273545332251,-0.4725555526733398,-0.3533101645678281,-0.0948005020618438,-0.2494267225265503,0.0555696785449981,walking
1761225788847202000,-1.414080908487737,-0.6544166791677475,-0.0761918437987566,-0.0349542275071144,-0.306621253490448,-0.0066773979924619,walking
1761225788857215200,-1.3891085259251297,-0.7257219199687243,-0.0252396551966667,0.0170285440981388,-0.3310267329216003,-0.0597318261861801,walking
1761225788867229200,-1.330866034184396,-0.6501181051909923,-0.0826058024942874,0.0588395781815052,-0.3245893716812134,-0.1021765768527984,walking
1761225788877242000,-1.3174687924727797,-0.5567576844483614,0.0236620306164026,0.0775173977017402,-0.3003383576869964,-0.1424182653427124,walking
1761225788887255300,-1.204294979365915,-0.4715379000633954,0.3025333325326442,0.059957068413496,-0.2927756905555725,-0.1722468137741089,walking
1761225788897269200,-0.937497050146386,-0.3556540973454714,0.5908429094016552,0.0158231668174266,-0.3136780560016632,-0.1710443943738937,walking
1761225788907282200,-0.6582084726661444,-0.2414765140235424,0.7110270396620034,-0.0403530672192573,-0.3188169598579407,-0.1444446146488189,walking
1761225788917295000,-0.4952872071044519,-0.1418061794817447,0.5811082818508148,-0.0910500660538673,-0.2950594425201416,-0.1100490912795066,walking
1761225788927309000,-0.5049292975336312,-0.0314601371467113,0.4689420383512973,-0.1330759823322296,-0.2636788785457611,-0.0789180845022201,walking
1761225788937322200,-0.5909443604821338,0.002780570629239,0.4266027797937393,-0.1713820993900299,-0.2319206893444061,-0.0670483782887458,walking
1761225788947335200,-0.6747988843958824,-0.0312198986500501,0.302927300286293,-0.2079678028821945,-0.1995916366577148,-0.0736498087644577,walking
1761225788957349000,-0.7479222074694931,-0.0308738616913557,0.1319073012799024,-0.2161761969327926,-0.1648834645748138,-0.0851083248853683,walking
1761225788967362000,-0.8103233532596379,0.0145668700128793,-0.0725870973050594,-0.1994060426950454,-0.1119779869914054,-0.0981766358017921,walking
1761225788977376300,-0.8553596688814461,0.1124228486090898,-0.2605424490213394,-0.1575131863355636,-0.0572798550128936,-0.1166842728853225,walking
1761225788987389200,-0.882056025692448,0.2033025584518909,-0.2730091318845749,-0.1044081971049308,-0.0175394285470247,-0.1434837877750396,walking
1761225788997402000,-0.860672242206335,0.2123977190554141,-0.1611632063806057,-0.0535069368779659,-0.0184062868356704,-0.1707857251167297,walking
1761225789007416300,-0.8601242529347538,0.0801905580461025,-0.0130991355478763,-0.0251927878707647,-0.0469888597726821,-0.2022271156311035,walking
1761225789017429000,-0.8548844525851309,-0.0419850382924079,-0.1263935062944889,0.0054050674661993,-0.0476107075810432,-0.2331461459398269,walking
1761225789027442200,-0.8388952946841717,-0.0562274986565113,-0.3380290088057517,0.036380011588335,0.0209755674004554,-0.2631716430187225,walking
1761225789037456100,-0.8400856735125184,-0.0159077632278203,-0.4006669590264559,0.0420876964926719,0.1208068206906318,-0.2862300872802734,walking
1761225789047469000,-0.7623188354820013,0.0662064563572406,-0.2177946096628904,0.0302923563867807,0.2193016111850738,-0.2947643995285034,walking
1761225789057482200,-0.5092066825918853,0.1134141977339982,0.0438993474811315,-0.0015153741696849,0.299564778804779,-0.2747235894203186,walking
1761225789067496000,-0.1580429372019134,0.1389806006669998,0.2746294265627861,-0.0321042574942112,0.3614926934242248,-0.2138818204402923,walking
1761225789077509000,0.1289342220195569,0.1195066693902015,0.4179553629577159,-0.0549144968390464,0.3863450586795807,-0.1345190852880478,walking
1761225789087522300,0.2878214645585045,0.06341010363698,0.4482441182374954,-0.0593858659267425,0.3870434761047363,-0.0504633076488971,walking
1761225789097536000,0.2896896878494881,-0.0430570514380931,0.2014730049371719,-0.0274303276091814,0.4272603988647461,0.0241645872592926,walking
1761225789107549200,0.2223857733780518,-0.1617249319165944,0.0075315645486116,0.022403884679079,0.4657340347766876,0.0823544263839721,walking
1761225789117562000,0.2093181289469823,-0.3399450715601444,0.1158954931557178,0.0807289704680442,0.4327659606933594,0.1248081400990486,walking
1761225789127576000,0.2397100888729095,-0.5414028789281845,0.2686170344054698,0.1335381418466568,0.3508918285369873,0.1507896333932876,walking
1761225789137589200,0.1379411563503556,-0.7448428000241517,0.4748533082216978,0.1724381446838379,0.2204265296459198,0.1563798785209655,walking
1761225789147602200,-0.1415295636306051,-0.9438637356340884,0.6784194860458373,0.1781989783048629,0.0536008179187774,0.121046707034111,walking
1761225789157616000,-0.4391386554356664,-1.0192395868748425,0.7489595876932144,0.1547298729419708,-0.1020827814936637,0.0609703250229358,walking
1761225789167629300,-0.660746320580691,-0.9367319840580224,0.5731295580565929,0.1103270351886749,-0.2075428366661071,0.0046275528147816,walking
1761225789177642000,-0.8282096500188112,-0.7949655520647764,0.1618956123083829,0.0479954816401004,-0.2138880789279937,-0.0407796092331409,walking
1761225789187656200,-0.8926854831911623,-0.5028536603033542,-0.469002244105935,0.0062302248552441,-0.0930546522140502,-0.0661279410123825,walking
1761225789197669400,-0.9901757702801376,-0.149700147601962,-0.9561223287045956,-0.0130819538608193,0.0954284444451332,-0.0680765807628631,walking
1761225789207683000,-0.967558718672022,0.0772930830389261,-1.3051356728613377,-0.0009631931316107,0.3068999946117401,-0.0623288080096244,walking
1761225789217696300,-0.8812683824460953,0.1896072105765342,-1.395925366333127,0.0409040972590446,0.4898767471313476,-0.0720597356557846,walking
1761225789227709000,-0.7056681429773569,0.246512754625082,-1.1136989087700844,0.089933380484581,0.585945188999176,-0.0870302990078926,walking
1761225789237723100,-0.4864965824054554,0.1925561235100031,-0.5766986487150192,0.130259484052658,0.5658997893333435,-0.0980123728513717,walking
1761225789247736300,-0.2562535561883822,0.128000941491127,-0.0361591086179018,0.1509723365306854,0.4850513935089111,-0.1083649322390556,walking
1761225789257749000,-0.0167634758748579,0.1004758057057857,0.3608294541567564,0.154514878988266,0.3709892630577087,-0.1022220849990844,walking
1761225789267763200,0.1441807265933603,0.1170598607599735,0.5958464167773724,0.1425932347774505,0.2447940707206726,-0.0980427861213684,walking
1761225789277776100,0.1806662541540339,0.1201975742638111,0.5211188003122806,0.1292619854211807,0.1745686382055282,-0.0915974006056785,walking
1761225789287789000,0.0859451395174488,0.1591834307402372,0.2620516845405101,0.1163548752665519,0.1835894286632537,-0.0922650471329689,walking
1761225789297803300,-0.0335630825090222,0.2969821281462907,0.1327718091547489,0.0989287495613098,0.2259408831596374,-0.090880736708641,walking
1761225789307816200,-0.0346910270930267,0.3894605053573846,0.1899906569361686,0.0690749064087867,0.2605125606060028,-0.0831179097294807,walking
1761225789317829000,0.0279406212510541,0.4058762181073427,0.2948638208180665,0.0356058925390243,0.2771101891994476,-0.0668385401368141,walking
1761225789327843000,0.0790748884217813,0.393111429080367,0.3121376117020845,0.0082426816225051,0.2935276925563812,-0.047746255993843,walking
1761225789337856000,0.1246299306880682,0.3843628899574279,0.2907330046236515,-0.0068633002229034,0.3090672194957733,-0.0310335867106914,walking
1761225789347869200,0.1581769936440512,0.3919283567756414,0.1983253545612096,0.0081564411520957,0.3148841559886932,-0.011602234095335,walking
1761225789357883100,0.2249055011140182,0.374170581766963,0.1587672511547803,0.0373667925596237,0.3014916479587555,-0.0059398207813501,walking
1761225789367896000,0.2496331151353195,0.3047153527468442,0.2261409977257251,0.0687978118658065,0.2705971002578735,-0.0173164270818233,walking
1761225789377909200,0.2077577477624639,0.2138485023856162,0.3258025644391775,0.0970773845911026,0.2418517172336578,-0.0437786616384983,walking
1761225789387923200,0.2287538105726242,0.1790297024607658,0.4808732991635799,0.1150561198592186,0.1990027874708175,-0.0680459141731262,walking
1761225789397936000,0.3241749997699633,0.2066425165295601,0.5969552548021078,0.1215923130512237,0.1409980654716491,-0.089707002043724,walking
1761225789407949300,0.4229443668840453,0.2434294016569852,0.6226087514966726,0.1269368231296539,0.096865139901638,-0.1009404137730598,walking
1761225789417963300,0.4757252322180196,0.2812228334784508,0.6281593713611364,0.1127024814486503,0.0559874810278415,-0.1115733534097671,walking
1761225789427976200,0.4947499949552118,0.2666086171925068,0.6743401077777147,0.0763811394572258,0.0272507593035697,-0.1319729089736938,walking
1761225789437989000,0.5080150251219049,0.2196627416223287,0.6538800880730151,0.0268215816468,0.0433929786086082,-0.1467247009277343,walking
1761225789448003000,0.5738873541539534,0.1574374638557434,0.6491466298103332,-0.0345010347664356,0.0609463490545749,-0.1541518419981002,walking
1761225789458016300,0.627848697976768,0.1149134963810443,0.7199006664693355,-0.1012323945760726,0.0362535193562507,-0.1581412553787231,walking
1761225789468030200,0.587809679185599,0.1086807394713163,0.6242126795619726,-0.1591231226921081,-0.0042510284110903,-0.1649538874626159,walking
1761225789478043100,0.4678041934277862,0.142059277459979,0.4402613027900457,-0.2086368799209594,-0.0472275242209434,-0.1853289306163787,walking
1761225789488056000,0.3284229395380243,0.2249690313369035,0.1660533165097236,-0.2388353049755096,-0.07981538772583,-0.2080914080142974,walking
1761225789498070300,0.2124916444165632,0.307358560732007,-0.173891170528531,-0.2514805197715759,-0.0942925959825515,-0.237039715051651,walking
1761225789508083200,0.1365939977914095,0.360966232278943,-0.4885603465348482,-0.2563447654247284,-0.0753760710358619,-0.2582867741584778,walking
1761225789518096100,0.1348008672969415,0.4657616547495126,-0.7526338922917842,-0.249647170305252,-0.0142141804099082,-0.2618282437324524,walking
1761225789528110300,0.2079671892620622,0.5246107340812682,-0.901797448799014,-0.241792544722557,0.0729596316814422,-0.2439972460269928,walking
1761225789538123000,0.372758669142425,0.6069517481595278,-0.9201374076098204,-0.2143950015306472,0.1660730689764022,-0.2072818428277969,walking
1761225789548136700,0.5944139728214591,0.7059358540028333,-0.8104442762255668,-0.1795552223920822,0.2376417219638824,-0.1399420946836471,walking
1761225789558150700,0.7647408019319176,0.697199005317688,-0.6811585556209087,-0.1253644227981567,0.290728896856308,-0.0728480070829391,walking
1761225789568163600,0.8606384860672056,0.5586573805898427,-0.5222393287748098,-0.0572918355464935,0.3496178388595581,-0.0169609598815441,walking
1761225789578176800,0.9266212166711688,0.3691939623981714,-0.2024842278063297,0.0043187965638935,0.3695142865180969,0.0321748927235603,walking
1761225789588190500,0.9468612369496376,0.1487339329183101,0.1949205145537853,0.0541714318096637,0.3410747647285461,0.0677748620510101,walking
1761225789598203600,0.958512804037705,-0.0735468822479248,0.6431973660171032,0.0786131247878074,0.2798116505146026,0.0905853733420372,walking
1761225789608216800,0.9871387406717984,-0.3304693872064352,1.0446037452340124,0.0805374830961227,0.1681809425354004,0.1016117855906486,walking
1761225789618230500,1.0053490817535669,-0.4539128115236759,1.3502280295193194,0.0589184686541557,0.0259819887578487,0.1005933955311775,walking
1761225789628243700,1.029752578387037,-0.5091922156751155,1.472638603657484,0.0247208848595619,-0.0974263250827789,0.0952178761363029,walking
1761225789638256600,1.0891136258289218,-0.522770659172535,1.3475462430894374,-0.0083747506141662,-0.1802671402692794,0.095416285097599,walking
1761225789648270600,1.0309884037923067,-0.3492787170946598,1.1345289308309554,-0.0452032499015331,-0.2170774936676025,0.1124285534024238,walking
1761225789658283800,0.9559139466509222,-0.1148807631552219,0.8974597118556499,-0.0857046023011207,-0.2063425630331039,0.1394809484481811,walking
1761225789668296400,0.8374711070999503,-0.0189729960173368,0.6073159052968025,-0.1302878558635711,-0.170768067240715,0.1657167673110962,walking
1761225789678310700,0.6498950370248406,-0.0497130021959543,0.1337047060906886,-0.1480524688959121,-0.0935553088784217,0.1891645640134811,walking
1761225789688323800,0.3317824425663799,-0.0932458544522523,-0.5779343279898166,-0.1276732683181762,0.0548072680830955,0.1852209717035293,walking
1761225789698336500,0.0268917332526296,-0.0529933390408754,-1.049250694257021,-0.0729729980230331,0.2123028934001922,0.1508632749319076,walking
1761225789708350700,-0.1287836893666535,-0.006008885025978,-1.0540168857455252,0.0025611266028136,0.2974262535572052,0.1032330393791198,walking
1761225789718363600,-0.0638943069573491,-0.0666840107411146,-0.7220178047537803,0.0703750625252723,0.2812725901603699,0.0551733709871768,walking
1761225789728377600,0.1687675439044833,-0.1547229442000389,-0.2761187883377075,0.1191002875566482,0.2039610892534256,0.02464653365314,walking
1761225789738390800,0.4885251290909945,-0.162065123656392,0.0908376242667436,0.1437619477510452,0.1024685502052307,0.030338242650032,walking
1761225789748403500,0.716303080368787,-0.0738812287688255,0.3500561312079429,0.1441566497087478,0.0117116216570138,0.047241311520338,walking
1761225789758417700,0.8342042142584919,0.0099088150739669,0.4507248291373252,0.1178760379552841,-0.0335304252803325,0.0880409404635429,walking
1761225789768430600,0.9229668588820844,0.1245481706887483,0.4619149161934852,0.0850414782762527,-0.018612602725625,0.1588141769170761,walking
1761225789778443500,0.9583728841103611,0.1612853714555502,0.4805108955919742,0.0488176941871643,0.0094158351421356,0.2369816899299621,walking
1761225789788457700,0.8920750231426209,0.0268400761306285,0.5671732800006866,0.006436607800424,0.0311633255332708,0.2981443107128143,walking
1761225789798470700,0.7033633731663227,-0.1955447839319705,0.6565905160754919,-0.0292550753802061,0.0377567820250988,0.3259716928005218,walking
1761225789808483600,0.4887164869446307,-0.37645138618052,0.6902402722209692,-0.0630375146865844,0.030856616795063,0.3187179565429687,walking
1761225789818497500,0.3450986549310386,-0.5154126976251602,0.5551221922010183,-0.0687494650483131,0.021858861669898,0.2973942756652832,walking
1761225789828510700,0.1969321466371417,-0.569895398440957,0.3522019110649824,-0.0511283390223979,0.0170062445104122,0.2626606523990631,walking
1761225789838523600,0.1434886161433533,-0.5032809458047152,0.2379419101566076,-0.0273356586694717,0.0190728567540645,0.2412896007299423,walking
1761225789848537600,0.0780401750791817,-0.5124368966847658,0.235087689769268,-0.010061178356409,-0.0201212521642446,0.1808348596096038,walking
1761225789858550500,0.0069708984585478,-0.5068634804666042,0.2969020486474037,0.0061731850728392,-0.0660157799720764,0.10835612565279,walking
1761225789868563700,0.1018689405646175,-0.5002390938907861,0.2041781722426414,0.0134497554972767,-0.1131244525313377,0.0542230680584907,walking
1761225789878577700,0.1450184195265174,-0.4087941513806581,0.1763409017682075,0.0002681741025298,-0.1393731087446212,0.0272407196462154,walking
1761225789888590600,0.1973035007001832,-0.3042331221878528,0.0008422960430383,0.0005251239053905,-0.129045695066452,0.0202817488461732,walking
1761225789898603800,0.2390175034988671,-0.1454705472081899,-0.2597404849886894,0.0180985238403081,-0.085623912513256,0.0200388692319393,walking
1761225789908617700,0.3008323007684201,0.0259305600702762,-0.378504811578989,0.0568519420921802,-0.0444115996360778,0.0305299144238233,walking
1761225789918630700,0.4289704222405329,0.1457137083142995,-0.3038064212083816,0.0948829427361488,-0.0358119830489158,0.0590646192431449,walking
1761225789928643600,0.5870405214440078,0.1762047081679105,-0.096219317305088,0.1377227306365966,-0.1015345379710197,0.1016887947916984,walking
1761225789938657800,0.7017366487473249,0.0795464149236679,0.1440998433768749,0.1717406213283538,-0.2120762169361114,0.1449449211359024,walking
1761225789948670700,0.6299564839109778,-0.0511982723176479,0.235389887586236,0.1978193968534469,-0.3317407965660095,0.1708195358514785,walking
1761225789958683600,0.4257423635721206,-0.1447317115396261,0.186450207850337,0.2174868434667587,-0.4218621551990509,0.1744313091039657,walking
1761225789968697600,0.2019560757463797,-0.1416021813422441,-0.0068704702913761,0.2423742562532425,-0.4654737114906311,0.1758201271295547,walking
1761225789978710500,-0.049044016893208,-0.1389303317844867,-0.2644675135105848,0.2695235908031463,-0.4605849385261535,0.1680567413568496,walking
1761225789988723700,-0.2438108204563148,-0.1830143881827592,-0.4032780183076858,0.2981823980808258,-0.4352120459079742,0.1436238139867782,walking
1761225789998737700,-0.4285297292683273,-0.2473363459676504,-0.4191010258615016,0.3170383870601654,-0.4146822690963745,0.1040175631642341,walking
1761225790008750600,-0.5442416094854474,-0.3200795106172561,-0.3675374273627996,0.3341636955738067,-0.3919556736946106,0.0523444935679435,walking
1761225790018763500,-0.5675958162616938,-0.3834598036378622,-0.344011590346694,0.349837988615036,-0.3426802456378937,0.0041194423101842,walking
1761225790028777500,-0.4918708958549425,-0.4287842154860496,-0.2026256821036338,0.3615188300609588,-0.3332928717136383,-0.0413260199129581,walking
1761225790038790700,-0.3384682404732331,-0.485729507023096,0.0504044915914535,0.3588207960128784,-0.3653434813022613,-0.0760051757097244,walking
1761225790048803600,-0.2380681303521618,-0.5889397061288356,0.2516834352612495,0.3470010161399841,-0.3924846053123474,-0.1254015564918518,walking
1761225790058817500,-0.2190819460596889,-0.6658171941041946,0.4297340635567903,0.3126915097236633,-0.4282726943492889,-0.1681008040904998,walking
1761225790068830700,-0.2105341719395481,-0.6394318760037422,0.6459148082822561,0.2609346210956573,-0.5073094367980957,-0.1992735564708709,walking
1761225790078844700,-0.222777457843069,-0.6053665247946978,0.9182944100916384,0.1785827577114105,-0.6240136623382568,-0.2354565858840942,walking
1761225790088857600,-0.3291991846075281,-0.6232032102584838,1.0942857677698137,0.0690159872174263,-0.7536475658416748,-0.2886575758457184,walking
1761225790098870800,-0.4460588100876659,-0.5379132832467556,1.0625883147358894,-0.0608775615692138,-0.8641189336776733,-0.3318068981170654,walking
1761225790108884500,-0.5249216631939634,-0.2991939589768648,0.7546972545623779,-0.1779675483703613,-0.9219481348991394,-0.3526106476783752,walking
1761225790118897700,-0.6313713922102004,-0.0305219795137643,0.1856955900907516,-0.2810952663421631,-0.8728903532028198,-0.3628521263599396,walking
1761225790128910600,-0.8029528975568712,0.2152712286651134,-0.3937187473237514,-0.3636345565319061,-0.7132116556167603,-0.3644951581954956,walking
1761225790138924500,-0.9200644154388457,0.4578974972456693,-0.9295020328044892,-0.4158788621425628,-0.4864743649959564,-0.3508472740650177,walking
1761225790148937700,-1.0018521064832806,0.626914339736104,-1.1837018348008397,-0.4204431176185608,-0.2481659799814224,-0.3294454216957092,walking
1761225790158950700,-1.0230908554755151,0.7218745968908071,-1.1833306634008884,-0.3909150660037994,-0.0544835962355136,-0.3095361590385437,walking
1761225790168964600,-0.986810750826448,0.7620435256719589,-0.9246306273758412,-0.3139883875846863,0.0054908609017729,-0.285008817911148,walking
1761225790178977800,-0.8719141325149684,0.7486813552737236,-0.7545803501844406,-0.1888613402843475,-0.0036951806396245,-0.2615455687046051,walking
1761225790188990700,-0.830201335292682,0.7041711824178696,-0.6977163071900606,-0.0320208668708801,-0.0202832110226154,-0.2470369338989257,walking
1761225790199004700,-0.8053248873852192,0.6520669011712074,-0.5172779069751501,0.1245620846748352,-0.0552776828408241,-0.2538197636604309,walking
1761225790209017900,-0.7939625855673104,0.515513819912076,-0.1242103170365095,0.251406729221344,-0.1193448901176452,-0.2777350842952728,walking
1761225790219030500,-0.7165773672655225,0.3477320721745491,0.3903507321953773,0.3194036185741424,-0.2225351929664611,-0.2892836332321167,walking
1761225790229044700,-0.6253992589980364,0.1366132870137691,0.8973241027772426,0.3259524405002594,-0.3457759320735931,-0.30587038397789,walking
1761225790239057700,-0.5587676360312849,-0.0489069465100765,1.2174585584521294,0.2691972851753235,-0.4490277767181396,-0.3234829306602478,walking
1761225790249070600,-0.544129892739281,-0.1125982051759958,1.2726456081449984,0.1640111356973648,-0.4852164089679718,-0.3386076092720032,walking
1761225790259084800,-0.5712106457579881,-0.0197761290937662,1.1391408085405823,0.0319907814264297,-0.4518603086471557,-0.3342565298080444,walking
1761225790269097500,-0.5400957418523729,0.1562713426858186,0.9988929644167422,-0.1138883158564567,-0.3731465935707092,-0.3080064952373504,walking
1761225790279110700,-0.4430757391562685,0.2509825935155153,0.8147329133301973,-0.24819977581501,-0.2851325571537018,-0.2560988366603851,walking
1761225790289124600,-0.3344057768072933,0.2906277906835079,0.6290957754284143,-0.369777649641037,-0.2148040533065796,-0.1984192579984665,walking
1761225790299137500,-0.3546872981399298,0.2898714193582534,0.4579150329023599,-0.462575227022171,-0.1915346831083297,-0.1674541532993316,walking
1761225790309150700,-0.493321131195873,0.2888093430846929,0.2199392204761505,-0.5208948254585266,-0.1731405854225158,-0.1428973525762558,walking
1761225790319164700,-0.5942261951643973,0.3586731529057025,-0.1716390076875686,-0.5335512161254883,-0.1571514904499054,-0.1122558191418647,walking
1761225790329177600,-0.5599235280681402,0.4668880284309387,-0.7180904021769762,-0.4781599640846252,-0.1093069836497306,-0.0630485266447067,walking
1761225790339190800,-0.5440965019263326,0.5870172136336564,-1.1615396873533723,-0.3651750981807709,-0.0717854425311088,-0.016225891187787,walking
1761225790349204500,-0.4943926328849047,0.6402794327437877,-1.2924702525556089,-0.215307280421257,-0.075437881052494,0.0207738522440195,walking
1761225790359217700,-0.4131418982613831,0.5719178441792726,-1.2841782250285148,-0.0579418987035751,-0.0875382199883461,0.0508643761277198,walking
1761225790369230800,-0.3195140222216024,0.5347732316553593,-1.1390467005163432,0.1089249327778816,-0.0944705456495285,0.0927742943167686,walking
1761225790379244500,-0.2741560368973761,0.4654243856191635,-0.8596832311689853,0.246441513299942,-0.0958324894309043,0.1305203437805175,walking
1761225790389257700,-0.2887227790460921,0.3081570176333189,-0.3631266251832246,0.3317072093486786,-0.1173925995826721,0.1516960263252258,walking
1761225790399270700,-0.3039662514125928,0.0930927097171545,0.209136086910963,0.363013744354248,-0.156661182641983,0.1631311029195785,walking
1761225790409284600,-0.3022881986651569,-0.101236268684268,0.6346060632824897,0.351211279630661,-0.1821266859769821,0.1638116240501403,walking
1761225790419297800,-0.411785369085893,-0.1964519619047641,0.915498057371378,0.2995201349258423,-0.194255530834198,0.1592389643192291,walking
1761225790429310500,-0.5720213410863653,-0.257273802614212,1.0997937175363302,0.2254681289196014,-0.1796325594186782,0.1394752562046051,walking
1761225790439324700,-0.721708884935081,-0.2938870847404003,1.1884849774241446,0.1323320567607879,-0.1518877446651458,0.1071082651615142,walking
1761225790449337600,-0.919051146743074,-0.3394043888121843,1.2743015586584805,0.0167988128960132,-0.1196856051683425,0.0637117847800254,walking
1761225790459351600,-1.0270724724575877,-0.3748515497684478,1.274949793434143,-0.1135322973132133,-0.0748395696282386,0.0213225167244672,walking
1761225790469364700,-1.050282448457554,-0.3219102331757545,1.1129928063273429,-0.2279156893491745,0.0035822754725813,-0.0126423574984073,walking
1761225790479377700,-1.04476711910218,-0.1869482205003499,0.8013350870966911,-0.3130066096782684,0.094767041504383,-0.0271352808922529,walking
1761225790489391600,-1.0041522001191974,0.0307569573134183,0.3590495850026607,-0.3427160680294037,0.1881417781114578,-0.0185155943036079,walking
1761225790499404500,-0.9226895763106644,0.2884761656075716,-0.0289665667653083,-0.3203950524330139,0.2636802196502685,0.0117136798799037,walking
1761225790509417700,-0.8386971417635679,0.4632891271561384,-0.2844552395284175,-0.250966876745224,0.3065016865730285,0.0489446073770523,walking
1761225790519431700,-0.744898329603672,0.5262684381604195,-0.3581950139999389,-0.1608465611934662,0.2925858795642853,0.0992256179451942,walking
1761225790529444600,-0.6815709358140826,0.5321007975757122,-0.2698854469060898,-0.0659937113523483,0.2235333919525146,0.1503364145755767,walking
1761225790539457500,-0.7059864151462912,0.4430015414088964,-0.1202636252373456,0.0262938700616359,0.1325238645076751,0.199143648147583,walking
1761225790549471200,-0.8841456183828413,0.2963724718153476,-0.020182956328988,0.1168313100934028,0.0539961792528629,0.2302592396736145,walking
1761225790559484200,-1.0488242124732583,0.1192459726274013,-0.0189765031486749,0.1895230859518051,0.0226377267390489,0.2428493350744247,walking
1761225790569497000,-1.178918399916589,-0.0447334602177143,-0.0492424620747566,0.2419181615114212,0.0345341302454471,0.237487718462944,walking
1761225790579511000,-1.28944652082026,-0.2437982349693775,0.0518014989078044,0.2507041990756988,0.0638211816549301,0.2145573645830154,walking
1761225790589524200,-1.3125526711195707,-0.3799398128181696,0.2770890946745872,0.224123328924179,0.1061521768569946,0.189988762140274,walking
1761225790599537200,-1.3124986028447747,-0.5227402640342712,0.4237748628914356,0.1690052151679992,0.1503372192382812,0.1710536777973175,walking
1761225790609551000,-1.3849341628499328,-0.5997656360477209,0.4785439794331789,0.0948434397578239,0.1856091022491455,0.1366342604160308,walking
1761225790619564000,-1.436697521704435,-0.6282780293047427,0.4047083433717489,0.0366011671721935,0.2475632727146148,0.0977044403553009,walking
1761225790629577200,-1.3998174053356052,-0.6226134276717901,0.2033890676915645,-0.0077198017388582,0.3249393105506897,0.056779708713293,walking
1761225790639591200,-1.345777918242663,-0.606677022871375,-0.012834931653738,-0.019611082971096,0.3808718025684356,0.0240505225956439,walking
1761225790649604000,-1.2761935098849235,-0.513402526846528,-0.292479556030035,0.010023976676166,0.4566572308540344,-0.0077602067030966,walking
1761225790659617300,-1.1886265778519212,-0.389060692384839,-0.4940069215029478,0.0687136501073837,0.526407778263092,-0.036763098090887,walking
1761225790669631200,-1.0326258688010277,-0.2958966709971428,-0.5798644192695618,0.143084242939949,0.5853480100631714,-0.058460533618927,walking
1761225790679644200,-0.7885830114208161,-0.2388824058771133,-0.5108662863671779,0.2241442054510116,0.6272904276847839,-0.0593002289533615,walking
1761225790689657000,-0.5267665969409048,-0.1953413703143596,-0.379914678376913,0.2945992052555084,0.6586266160011292,-0.040482074022293,walking
1761225790699671300,-0.2534998370334506,-0.2005564746141433,-0.1149275249063968,0.3466818630695343,0.6608160138130188,-0.0043381862342357,walking
1761225790709684200,0.0080879882883979,-0.2037561474382877,0.2139782662451267,0.36958047747612,0.6137756109237671,0.0412592217326164,walking
1761225790719697200,0.2431925241611897,-0.2628057177782059,0.5540946027189493,0.3760668635368347,0.5186884999275208,0.0848312005400657,walking
1761225790729711000,0.4366206082001328,-0.368321855738759,0.7492705533385277,0.3540216982364654,0.4152034819126129,0.12894107401371,walking
1761225790739724000,0.5091915946206078,-0.4634890336424112,0.8013643131911754,0.3062898516654968,0.3322641253471374,0.1652490198612213,walking
1761225790749737200,0.4781765343602746,-0.4919301152288913,0.7911772656977176,0.2313569486141204,0.2760451734066009,0.1920957565307617,walking
1761225790759751200,0.350271016067639,-0.4756202009409666,0.7049485965311527,0.1517364233732223,0.2406320422887802,0.197184532880783,walking
1761225790769764000,0.2486306966271251,-0.4468757524937391,0.517673628294468,0.0647287517786026,0.2118761390447616,0.193548172712326,walking
1761225790779777000,0.1493726418138015,-0.3648550564110279,0.2528711837410927,-0.0073803262785077,0.194887563586235,0.1813045591115951,walking
1761225790789791200,0.0563355073419399,-0.2055588129460811,-0.1044593223839998,-0.0620588138699531,0.1799759417772293,0.1643028706312179,walking
1761225790799804200,-0.0386506149063818,0.0148719904392957,-0.4655564875662326,-0.0874182283878326,0.1760475188493728,0.1561250984668731,walking
1761225790809817000,-0.125292139190156,0.2517231827497482,-0.8191121513277292,-0.0847960412502288,0.2018930315971374,0.1546487659215927,walking
1761225790819831000,-0.2370936775631271,0.4910153384715318,-1.0800514907121657,-0.0651349872350692,0.260912150144577,0.1543677896261215,walking
1761225790829844200,-0.2541024425690993,0.646793344682455,-1.191233399349451,-0.0384786203503608,0.3345436453819275,0.1574935913085937,walking
1761225790839857200,-0.1832888394762761,0.7801870851278304,-1.172123040688038,0.0012648000847548,0.4122815728187561,0.1680916398763656,walking
1761225790849871000,-0.0455167378162033,0.8772662341326475,-1.0420821178019046,0.0487441830337047,0.4996334910392761,0.191108226776123,walking
1761225790859884300,0.0732282082201913,0.9131500329405068,-0.7841916445940732,0.0894319638609886,0.5882614254951477,0.2208757102489471,walking
1761225790869897200,0.2404022906544618,0.897903363969922,-0.3471668395072221,0.104027584195137,0.647316575050354,0.2568292319774627,walking
1761225790879911200,0.4044495463050901,0.7746247748255729,0.1645055025458335,0.0947137102484703,0.6682591438293457,0.2835785448551178,walking
1761225790889924000,0.5417062823215499,0.6252063667744397,0.6571382130861282,0.0558948591351509,0.6777277588844299,0.311816543340683,walking
1761225790899937300,0.6859225551523268,0.4924871645897626,1.073434118399024,0.0087049780413508,0.6378754377365112,0.3331641852855682,walking
1761225790909951200,0.7700975797247142,0.3358025649279356,1.371206520140171,-0.0497713796794414,0.5768243074417114,0.3373080492019653,walking
1761225790919964200,0.7897828887298702,0.1805950520813465,1.5288333690881728,-0.1043715104460716,0.4851209819316864,0.3336539268493652,walking
1761225790929977000,0.8529181209482252,0.0580342558175325,1.5714374160617588,-0.1421953588724136,0.383919894695282,0.3264563381671905,walking
1761225790939991300,0.9232975521411746,-0.004990647894144,1.435622001427412,-0.1525199115276336,0.2897470593452453,0.3111934959888458,walking
1761225790950004200,0.9633369362585246,-0.0321025267034769,1.282570205309987,-0.1542432755231857,0.1945765018463134,0.2979211807250976,walking
1761225790960017200,0.9801480050016194,-0.0278477918684482,1.1819663893103598,-0.151639237999916,0.1073995232582092,0.2877825200557709,walking
1761225790970031400,0.96710330305472,-0.100346626368165,0.9331494493961332,-0.1508389413356781,0.0460645034909248,0.2813778519630432,walking
1761225790980044000,0.8926440552022308,-0.1616460214614868,0.5791945571839809,-0.1573048233985901,0.0359649956226348,0.2692841589450836,walking
1761225790990057200,0.7316206226184964,-0.17077859146595,0.3558604335725307,-0.1658328026533126,0.0475896969437599,0.2416000813245773,walking
1761225791000071200,0.5258470344105736,-0.1224006372660398,0.1971294227749109,-0.1870456784963607,0.0830970853567123,0.1994853764772415,walking
1761225791010084000,0.3637304362952709,-0.0880342572838068,0.0676636694282293,-0.2115902453660965,0.1328234523534774,0.1546286195516586,walking
1761225791020097300,0.3321579978805035,-0.0636877515345811,-0.0011585223853588,-0.2372790873050689,0.1832402944564819,0.120442159473896,walking
1761225791030111000,0.3388933705501258,-0.0045136780321598,-0.1384171215653419,-0.2645059823989868,0.256458967924118,0.0970550253987312,walking
1761225791040124200,0.323078692433238,0.0421983887821435,-0.2553963183045387,-0.2779890298843384,0.3436697721481323,0.0753023326396942,walking
1761225791050137000,0.3622998920354991,0.1427051741480827,-0.3020300591856241,-0.2759769558906555,0.4243801236152649,0.0613559707999229,walking
1761225791060151000,0.4953310097135603,0.2737351080715656,-0.2170423299908637,-0.2628068327903747,0.4618787467479706,0.0637048780918121,walking
1761225791070164200,0.628642697898671,0.3377484382987022,-0.0183107327163219,-0.2410812973976135,0.4379220306873321,0.083434909582138,walking
1761225791080177200,0.786509785343334,0.3705143973469734,0.1762251664340496,-0.2048966586589813,0.3629029095172882,0.1266590803861618,walking
1761225791090191000,0.8600156779937446,0.3654781567454337,0.2644061387121677,-0.1491114795207977,0.2706200182437897,0.1744464486837387,walking
1761225791100204300,0.7837409782171249,0.3046586541235446,0.2758165905207395,-0.0960935205221176,0.1768016666173935,0.2119160592555999,walking
1761225791110217200,0.6123978116709738,0.2159767465859651,0.3108738753765821,-0.0434700697660446,0.107089951634407,0.2281637042760849,walking
1761225791120231200,0.415457299064286,0.1410901401668786,0.3793056065678596,-0.0098053161054849,0.0512083023786544,0.225122645497322,walking
1761225791130244400,0.2559576419817284,0.0133130705595016,0.5115981077730656,-0.0072976234368979,-0.0128734372556209,0.2161265611648559,walking
1761225791140257000,0.1273124843029305,-0.0644996524393558,0.5467372256934643,-0.0238552950322628,-0.0636460706591606,0.1991118937730789,walking
1761225791150271200,0.056487683962658,-0.1014455275207757,0.4353402130007743,-0.0565380007028579,-0.0745489969849586,0.1933609098196029,walking
1761225791160284200,0.0170623766230419,-0.0278647430032491,0.3019710224747657,-0.08692067861557,-0.0655515119433403,0.1999146789312362,walking
1761225791170298000,-0.0343099736198782,0.0760123955786228,0.1185994914174079,-0.0993904545903205,-0.0384570769965648,0.211291879415512,walking
1761225791180311300,-0.1219219503710046,0.1691921990573406,-0.0773036044329404,-0.0931735709309578,-0.0018146443180739,0.2251163572072982,walking
1761225791190324000,-0.1633987834129482,0.1936591163158416,-0.1449666893392801,-0.0658391639590263,0.0132655296474695,0.2252900451421737,walking
1761225791200338200,-0.1928174778599292,0.1089221470117568,-0.1619791989386081,-0.0219161882996559,0.01954872533679,0.2202920913696289,walking
1761225791210351000,-0.2519701067155226,-0.0344897141009569,-0.0658709407925605,0.0214852225035429,0.0071088881231844,0.207046702504158,walking
1761225791220364000,-0.2608317508241161,-0.1830868688970804,0.1372100838631391,0.0611367598176002,-0.0429478883743286,0.1877853870391845,walking
1761225791230377200,-0.2302226775487884,-0.3392243560701608,0.3695072661310434,0.0882733538746833,-0.1370526254177093,0.1534712165594101,walking
1761225791240391200,-0.2198702468931674,-0.4439782774865627,0.5578115774154663,0.1030075624585151,-0.2481091022491455,0.1136585623025894,walking
1761225791250404000,-0.2105217873820103,-0.4836047699540853,0.6040133566200733,0.1119861230254173,-0.3422102630138397,0.0754334554076194,walking
1761225791260418300,-0.2244655935931019,-0.4864771105200052,0.5353372952789068,0.1088859438896179,-0.4098652005195617,0.0335334092378616,walking
1761225791270431000,-0.2639659389303065,-0.4698264199703931,0.4350391842275857,0.0911362394690513,-0.4501613974571228,-0.0025247354060411,walking
1761225791280444200,-0.2226467989344149,-0.4226502427756786,0.2557423552632332,0.0655211582779884,-0.469539612531662,-0.0213825777173042,walking
1761225791290458000,-0.121980329494737,-0.3874719618886709,0.0103249946594238,0.0465168133378028,-0.4547771215438843,-0.0205489117652177,walking
1761225791300471000,-0.1632515386956743,-0.397766561409831,-0.1902075145572423,0.0223446302115917,-0.4305665791034698,-0.023723667487502,walking
1761225791310484200,-0.3061787032976746,-0.4265682930022478,-0.2851905680656433,0.0010214985813945,-0.4143218398094177,-0.0377526693046093,walking
1761225791320498200,-0.411230511682108,-0.4402326612174511,-0.4341127170324325,-0.0081812599673867,-0.3919549882411957,-0.0613548532128334,walking
1761225791330511000,-0.4492264072731137,-0.4840384851962327,-0.5709311712294817,0.0088365115225315,-0.3447563052177429,-0.0915654674172401,walking
1761225791340524300,-0.4141675880473107,-0.5758639514565468,-0.6168775143682956,0.0319426320493221,-0.3029188513755798,-0.1236070245504379,walking
1761225791350538200,-0.3222821717606857,-0.6827396873325109,-0.4185486526757478,0.0564153753221035,-0.3134040832519531,-0.1489197760820388,walking
1761225791360551200,-0.2521839869282208,-0.7762550063759088,-0.1077285533130168,0.0665457770228385,-0.4002353847026825,-0.185389369726181,walking
1761225791370564000,-0.2483115476753562,-0.8700017960876226,0.0269581495523452,0.0708553120493888,-0.4952469766139984,-0.2171587944030761,walking
1761225791380578000,-0.2591171471922658,-0.8806815955340862,0.0131885673969984,0.0775145515799522,-0.5937999486923218,-0.2599384784698486,walking
1761225791390591200,-0.4503671382734552,-0.8336807749062776,0.062352703538537,0.0708091780543327,-0.7064582109451294,-0.3070916831493377,walking
1761225791400604200,-0.6909629604723304,-0.6809761847913265,0.0994148984760046,0.0501590222120285,-0.8159857392311096,-0.3594723343849182,walking
1761225791410618000,-0.8609170838128775,-0.6272755742639303,-0.11507073276937,0.0210067518055439,-0.8510419130325317,-0.4141345620155334,walking
1761225791420631300,-0.9513388938203452,-0.4950777656048536,-0.4018909478634596,-0.0054773185402154,-0.8283781409263611,-0.4723259806632995,walking
1761225791430644000,-0.9814698281899094,-0.2517857265919447,-0.6671136636555195,-0.0257010646164417,-0.7350431680679321,-0.5065431594848633,walking
1761225791440658200,-0.937389278922975,0.0029909985095262,-0.9282166691690684,-0.0164207462221384,-0.6083515882492065,-0.5192118287086487,walking
1761225791450671000,-0.8454536302864551,0.2488958503693342,-0.9946890829861164,0.005495635792613,-0.4697383940219879,-0.5210429430007935,walking
1761225791460684000,-0.6969369203153998,0.3727238900899887,-0.8720534679204225,0.0271354168653488,-0.3561130464076996,-0.5085455775260925,walking
1761225791470698200,-0.5194497711215168,0.3905383637219667,-0.5283335539966821,0.0518924631178379,-0.3133144974708557,-0.4861111938953399,walking
1761225791480711200,-0.3447389182405546,0.301968684387207,-0.1484615457177162,0.0775666683912277,-0.3557330667972564,-0.4713754057884216,walking
1761225791490724000,-0.2791997849519364,0.2302016712933778,0.1683341209232807,0.1036070063710212,-0.4542503654956817,-0.4706093370914459,walking
1761225791500738000,-0.3269507480936124,0.1483563317775726,0.2931540942907333,0.1321531683206558,-0.5397370457649231,-0.4932690858840942,walking
1761225791510751200,-0.4590601843494921,0.129175830489397,0.3189788558989763,0.1507937610149383,-0.582351565361023,-0.533340573310852,walking
1761225791520764200,-0.5680015475183725,0.2001204212844371,0.3103787853360176,0.1633268594741821,-0.5999883413314819,-0.5777732729911804,walking
1761225791530778000,-0.663456164061278,0.3315484146147966,0.3638870881617069,0.1520540714263916,-0.6056214570999146,-0.608295738697052,walking
1761225791540791300,-0.7228630964715034,0.3756523447573184,0.4207973083853721,0.1246093958616256,-0.5763536095619202,-0.642443060874939,walking
1761225791550808000,-0.7311557815857231,0.3359498644441366,0.4379056795746088,0.0613680705428123,-0.533523440361023,-0.6856279969215393,walking
1761225791560822300,-0.7369225284188985,0.3833317933440208,0.5368780949801206,-0.0196817684918642,-0.4916279017925262,-0.7146812081336975,walking
1761225791570835500,-0.6810024882763623,0.4808762217730283,0.3270581174582243,-0.0914534777402877,-0.4080977737903595,-0.7205496430397034,walking
1761225791580848000,-0.6193691119883209,0.6457669242441654,0.0256909060955047,-0.1375943422317505,-0.2701849043369293,-0.7143205404281616,walking
1761225791590862300,-0.5779810166757553,0.8345955516636371,-0.0733306091487407,-0.1708306968212127,-0.1329641938209533,-0.7042515873908997,walking
1761225791600875300,-0.4755568168485536,1.0166261895060538,0.011426818421483,-0.194737359881401,-0.0637505054473877,-0.6813313364982605,walking
1761225791610888200,-0.2861517229816876,1.0800070670485495,0.15841361541152,-0.2035177946090698,-0.0453991964459419,-0.6381628513336182,walking
1761225791620902400,-0.0960264981467276,1.0778320610970258,0.334651056805253,-0.204209417104721,-0.0808240324258804,-0.5806867480278015,walking
1761225791630915000,0.0314287647609133,1.0179039543569088,0.520474657189846,-0.2218291759490966,-0.1618030220270156,-0.506746768951416,walking
1761225791640928300,0.1341746799563057,0.950810193771124,0.6002922902703285,-0.2433206140995025,-0.2379981875419616,-0.4315207004547119,walking
1761225791650942200,0.1857509370071813,0.8694616978615521,0.4709124616414308,-0.2479102611541748,-0.2580648064613342,-0.3423494398593902,walking
1761225791660955100,0.2214011827874928,0.8836895451784134,0.3131377286553383,-0.2434132397174835,-0.2467117309570312,-0.2413671910762787,walking
1761225791670968300,0.2107733509902842,0.8907616755217314,0.3339689197599887,-0.2508947253227234,-0.280638188123703,-0.1357598602771759,walking
1761225791680981500,0.1423737411034759,0.8537345518976449,0.3808312086999416,-0.2519751787185669,-0.3293644487857818,-0.0359275452792644,walking
1761225791690995200,0.0339451954280957,0.7374772396922111,0.2801478977233171,-0.2455029785633087,-0.347616583108902,0.0512563325464725,walking
1761225791701008400,-0.1475612267439719,0.5642378110706806,0.1636965242505073,-0.2336702942848205,-0.3469036519527435,0.1156912520527839,walking
1761225791711022300,-0.3345208545543253,0.4077858511209488,-0.008297288224101,-0.2069080770015716,-0.3295907378196716,0.1556119620800018,walking
1761225791721035300,-0.5456708385709673,0.2462754387378692,-0.2393663900017738,-0.1584300249814987,-0.2619214057922363,0.1729704439640045,walking
1761225791731048400,-0.7850097560439259,0.0770423231482505,-0.3824117558896541,-0.0996141880750656,-0.1638716757297516,0.1535229682922363,walking
1761225791741062100,-0.9803535375110805,-0.1278933894634246,-0.2197194402456283,-0.0632633790373802,-0.0676511377096176,0.103533037006855,walking
1761225791751075300,-0.9969711295086888,-0.3066688249021768,0.1337508833199739,-0.0486172549426555,-0.0157986860722303,0.0554369501769542,walking
1761225791761088300,-0.8723950478997081,-0.4156768966317176,0.5229951155781746,-0.0566445551812648,-0.002807518467307,0.0237088464200496,walking
1761225791771101200,-0.6760015381839126,-0.5151157605051994,0.8226414944976568,-0.081998661160469,-0.0420355945825576,0.0133771616965532,walking
1761225791781115400,-0.472488040395081,-0.5344540827035904,0.9648854808747768,-0.1149358376860618,-0.0829619839787483,0.0146181946620345,walking
1761225791791128300,-0.4073904220625758,-0.5720084450721741,0.9619061728030442,-0.145284429192543,-0.1073128655552864,0.0165457911789417,walking
1761225791801141200,-0.4363631263077259,-0.5315361494302749,0.8619336404442787,-0.1713799387216568,-0.1097565814852714,0.0253336895257234,walking
1761225791811155200,-0.5346834710126742,-0.4226110798090696,0.637753713658452,-0.1825461685657501,-0.0894814804196357,0.0330271311104297,walking
1761225791821168000,-0.6547820784140378,-0.3103933983832597,0.3738450030744075,-0.1879681050777435,-0.0541163012385368,0.0382807478308677,walking
1761225791831181300,-0.7779128565855323,-0.2062380273818969,0.1441577110439539,-0.1759857535362243,0.0035986835137009,0.0420217402279377,walking
1761225791841195300,-0.8107086262501776,-0.0979085855662822,-0.0917670140713453,-0.1493176519870758,0.0838282704353332,0.0566446259617805,walking
1761225791851208200,-0.8175579076230526,0.0100438396304845,-0.224141932862997,-0.1169867068529129,0.1705493330955505,0.0827180594205856,walking
1761225791861221400,-0.7910634300597011,0.1053513027876615,-0.1959358290761709,-0.0784502327442169,0.2111468315124511,0.116887480020523,walking
1761225791871235300,-0.7215585166789591,0.1975046858280897,-0.1170312191873788,-0.0323229953646659,0.2263091951608657,0.1606135219335556,walking
1761225791881248300,-0.6352662807568907,0.2101654299587011,-0.0763461575776338,0.0129235778003931,0.2127238810062408,0.2163707911968231,walking
1761225791891261400,-0.6034680707622319,0.2025841810494661,-0.0749941584467887,0.0536725111305713,0.2000088989734649,0.2707946300506592,walking
1761225791901275400,-0.6716149205975234,0.1699228514194488,-0.0375590385437011,0.0749160200357437,0.1904683858156204,0.3117178380489349,walking
1761225791911288300,-0.7853888915546238,0.0970084218561649,-0.0200046771526336,0.0877450630068779,0.1903644055128097,0.3424795269966125,walking
1761225791921301200,-0.8176091994188726,0.063350482404232,-0.0684130264908075,0.1002147868275642,0.190137505531311,0.3717551231384277,walking
1761225791931315200,-0.804368609573692,0.0790694450616836,-0.1943658032804727,0.1335371732711792,0.1873107701539993,0.3963724672794342,walking
1761225791941328400,-0.787977154482156,0.0443996982187032,-0.5317559296607971,0.1859183609485626,0.2237223088741302,0.4194564819335937,walking
1761225791951341300,-0.8781909477621317,0.1006008933901786,-0.988856139048934,0.2760857045650482,0.3459509313106537,0.4398553371429443,walking
1761225791961355300,-0.9483023026034236,0.1420236216247081,-1.2854472220510245,0.3778368234634399,0.5236681699752808,0.4645883738994598,walking
1761225791971368200,-0.8508721482038497,0.0999386300891637,-1.1399492023140192,0.4489213824272156,0.6482290029525757,0.4571453928947449,walking
1761225791981381000,-0.8487691845752299,-0.1293500180125236,-0.6398638376802206,0.4861651659011841,0.706484317779541,0.4320754408836365,walking
1761225791991395300,-0.6309859730891882,-0.4044423859119415,-0.217077401304245,0.5005106925964355,0.7293818593025208,0.4121012985706329,walking
1761225792001408300,-0.3463515045363455,-0.6922907750099897,0.0610638327717781,0.4973604381084442,0.7391484975814819,0.4001743197441101,walking
1761225792011421200,-0.0155184899155981,-0.8555717041969298,0.3729518536269665,0.4715238511562347,0.7007118463516235,0.3940160572528839,walking
1761225792021435100,0.3382490812972187,-0.9686234983593224,0.758428842306137,0.4272107183933258,0.5925449132919312,0.3945276737213135,walking
1761225792031448300,0.5225943892901763,-1.064778518256545,1.0877437987804413,0.3547116816043854,0.3977529108524322,0.399132490158081,walking
1761225792041461200,0.5527316438026726,-1.0423661954402923,1.2307646147489546,0.2433159053325653,0.1611331850290298,0.3877639770507812,walking
1761225792051475200,0.3737043890273198,-0.99123222053051,1.096920207926631,0.1105499118566513,-0.0392598807811737,0.3601870834827423,walking
1761225792061488400,0.1525968919567763,-0.7394160988003015,0.5336217235326767,-0.0037601555231958,-0.1424392610788345,0.3352828025817871,walking
1761225792071501300,-0.0949347208546474,-0.2929781532019376,-0.3405547278910875,-0.0676138773560524,-0.1020961105823516,0.320680171251297,walking
1761225792081515300,-0.3914509485222399,0.2550233933389186,-1.2614461687386036,-0.0641395151615142,0.0446925349533557,0.3086482584476471,walking
1761225792091528200,-0.6437568265307694,0.730155518501997,-1.8635189126849172,-0.0056774937547743,0.2680518925189972,0.2830173075199127,walking
1761225792101541400,-0.6683795919381081,0.9819769009292124,-2.107759046202898,0.0763678401708602,0.4964435398578644,0.2497094273567199,walking
1761225792111555300,-0.4543923386689275,1.1183435197055338,-1.956273768749833,0.1624313294887542,0.6960082650184631,0.2327587753534317,walking
1761225792121568300,-0.1501818484379909,1.17726624879539,-1.512940218907595,0.2548648715019226,0.8165605068206787,0.2433456480503082,walking
1761225792131581200,0.1773003579175099,1.2118167531728743,-0.831490571385622,0.3260245323181152,0.832988440990448,0.2796932160854339,walking
1761225792141595400,0.413933085171692,1.1376543693751096,-0.1774362957894802,0.3774538934230804,0.7598172426223755,0.3128668963909149,walking
1761225792151608300,0.6572124473661184,0.952715735131502,0.3922334772020578,0.410815566778183,0.6573051810264587,0.3427100479602813,walking
1761225792161621200,0.9005245793189853,0.7641320223838091,0.8478484164685011,0.4124680459499359,0.5252960324287415,0.3632611036300659,walking
1761225792171635500,1.0928893449753525,0.5911643964409827,1.245191784030199,0.3728685975074768,0.3733535408973694,0.3703513741493225,walking
1761225792181648100,1.2077106330282985,0.5350263296335935,1.6220745473653078,0.2907686829566955,0.2182041704654693,0.3892931044101715,walking
1761225792191661300,1.2976166755333542,0.4358727124422788,1.7844406997948885,0.1622087657451629,0.0784678012132644,0.4251285195350647,walking
1761225792201675300,1.302057872851193,0.3146054631203412,1.624701973259449,0.0194841045886278,-0.009707598015666,0.4777043759822845,walking
1761225792211688200,1.117929751272872,0.2251625080823898,1.2467442741692063,-0.1152037531137466,-0.0356341525912284,0.5148751735687256,walking
1761225792221701400,0.7378398624595254,0.0906032309889793,0.7597966235280037,-0.2251574248075485,-0.0118688996881246,0.5074945092201233,walking
1761225792231715300,0.2709315949581563,-0.0217594118654727,0.1960200002282857,-0.310094952583313,0.0374623201787471,0.4502951502799988,walking
1761225792241728300,-0.1173745527323335,-0.0780278270542621,-0.3175602212727069,-0.3513260185718536,0.0872517153620719,0.3586919903755188,walking
1761225792251741200,-0.3394386929405853,-0.0944920551210641,-0.7112865673810244,-0.3589027225971222,0.13269804418087,0.2604989111423492,walking
1761225792261755100,-0.3870660479689016,-0.0709165337443351,-1.0030231960892677,-0.3329691290855407,0.165911927819252,0.1783193349838256,walking
1761225792271768300,-0.2824797747369855,-0.0006160860717296,-1.2020534840494397,-0.2889604270458221,0.1977238655090332,0.1122134178876876,walking
1761225792281781200,-0.1280338939126581,0.1085328554332256,-1.2344359967380762,-0.2372668832540512,0.2206789702177047,0.0719248577952385,walking
1761225792291795200,0.0681818846160546,0.2053255887120962,-1.2093179220944643,-0.1820815801620483,0.2428343594074249,0.0642672330141067,walking
1761225792301808400,0.1679967604613862,0.280506209641695,-1.3257464992135763,-0.10887261480093,0.2941638529300689,0.0773944854736328,walking
1761225792311821300,0.1845389674015343,0.3541647355705499,-1.524299232789874,-0.0083481548354029,0.4001257419586181,0.0983914285898208,walking
1761225792321835300,0.0918256854560226,0.4060837233781814,-1.3810212271898985,0.0984725654125213,0.4958482682704925,0.1031281277537345,walking
1761225792331848400,-0.0061765788762364,0.2980114711940288,-0.8605652747005224,0.1772014796733856,0.5030364394187927,0.0917641520500183,walking
1761225792341861400,0.0486987790855346,0.0700374128222465,-0.2093582052290439,0.2183632850646972,0.4539705812931061,0.0721811354160308,walking
1761225792351875300,0.1439810758354142,-0.0891506940931081,0.3394020507246256,0.2434736341238021,0.3813594579696655,0.0575009062886238,walking
1761225792361888300,0.2263791173305362,-0.1986146928966045,0.8249953641474247,0.2274302244186401,0.2892002463340759,0.0424290150403976,walking
1761225792371901200,0.2688285765306092,-0.283626387488842,1.187632159987092,0.1757374256849289,0.2053172588348388,0.0352905467152595,walking
1761225792381915400,0.2933571425821632,-0.3100233960270881,1.2323124287128449,0.1120990589261055,0.173380896449089,0.037406962364912,walking
1761225792391928300,0.3328239875085652,-0.272339269798994,1.2111807933568954,0.0418274514377117,0.1816548407077789,0.0447320491075515,walking
1761225792401941200,0.3514758983453735,-0.2072849060863256,1.2617974663943052,-0.0315706022083759,0.1836442351341247,0.0559242479503154,walking
1761225792411954200,0.4179067380430176,-0.1522521701723337,1.4405600423514842,-0.1033911630511283,0.1382917612791061,0.0736344754695892,walking
1761225792421968100,0.4943596804633736,-0.1262777709603309,1.566028835016489,-0.1721598356962204,0.0222996436059474,0.0970798805356025,walking
1761225792431981300,0.5811956678733229,-0.1261608665823936,1.4060627294659611,-0.2073493748903274,-0.098958283662796,0.1361203491687774,walking
1761225792441994200,0.5609826451996341,-0.0416793333441019,0.8145815221607685,-0.1922473907470703,-0.136988490819931,0.1852961480617523,walking
1761225792452008200,0.4064185813557356,0.0605558832496404,0.3025602205395698,-0.1410302370786667,-0.1333796977996826,0.2197024822235107,walking
1761225792462021400,0.1843707712277769,0.0752308898121118,0.0456242715775966,-0.0720330625772476,-0.1323373317718505,0.2246810048818588,walking
1761225792472034300,0.0305315008273581,-0.0258007962107658,0.0197796362251043,-0.0111377462744712,-0.1426175385713577,0.212859496474266,walking
1761225792482048300,-0.0569536346737062,-0.2095306391865015,0.0677402417957782,0.0439441464841365,-0.1522219628095626,0.1829753667116165,walking
1761225792492061400,-0.1365710918398573,-0.3202981218039989,0.1002279684245586,0.0842242687940597,-0.1490059047937393,0.1426636576652526,walking
1761225792502074400,-0.191291108542867,-0.317806304988265,0.2503793669253588,0.1099469438195228,-0.1584135293960571,0.092781588435173,walking
1761225792512088300,-0.1850314270935952,-0.3050859396249055,0.4447586142092943,0.1156164482235908,-0.1665633171796798,0.0419879257678985,walking
1761225792522101200,-0.0626347901492379,-0.3293050196021795,0.5842734678834677,0.0963415578007698,-0.1849068999290466,0.0025779383722692,walking
1761225792532114200,0.0320404943179339,-0.2856155154794454,0.6534983952790498,0.0642532035708427,-0.1994834393262863,-0.0290372129529714,walking
1761225792542128400,0.0645670733860693,-0.2411070961892604,0.6627011079102754,0.0163192376494407,-0.2080257833003997,-0.0660072192549705,walking
1761225792552137500,-0.1311564463799819,-0.0571960514277219,0.5316448705017567,-0.0329944789409637,-0.1697317212820053,-0.1037397757172584,walking
1761225792562150100,-0.0021969620550051,-0.116352004751563,0.5144558352917432,-0.0853863209486007,-0.1230765953660011,-0.1382431536912918,walking
1761225792572164400,0.1585972283501178,-0.1977227124929428,0.5659551363825798,-0.1492678523063659,-0.1117394939064979,-0.1497551500797271,walking
1761225792582177300,0.3458251425746828,-0.1888210286349058,0.6722258921027183,-0.2143376618623733,-0.1357537508010864,-0.1364217698574066,walking
1761225792592190200,0.3870532250199466,-0.2039724205374717,0.660840574735403,-0.2642377018928528,-0.1620204746723175,-0.1242646500468254,walking
1761225792602204400,0.3310846695605665,-0.2222445748090744,0.4948579853743314,-0.2930879890918731,-0.1780772060155868,-0.1125115826725959,walking
1761225792612217300,0.344669761994481,-0.1994739400744438,0.1887508860081434,-0.2873721122741699,-0.2058429419994354,-0.1025772169232368,walking
1761225792622230300,0.2791861034864559,-0.2809709045439958,-0.2258522439122199,-0.2351675033569336,-0.2264464944601059,-0.0926827788352966,walking
1761225792632244200,0.1972202245972119,-0.2929910126835107,-0.513204958447814,-0.1522447317838668,-0.2429435849189758,-0.1049597188830375,walking
1761225792642257200,0.0806533349859528,-0.2557213124752044,-0.6753513306468725,-0.0432519316673278,-0.3115279674530029,-0.126245304942131,walking
1761225792652270300,0.0029120515218004,-0.2413929273933172,-0.8115653892099857,0.0908605307340622,-0.3843067288398742,-0.1498047709465026,walking
1761225792662284300,-0.000922594737634,-0.2293260575026273,-1.037144661399722,0.2434466183185577,-0.4355262517929077,-0.1700176298618316,walking
1761225792672297200,-0.0252058807912282,-0.2818815896481275,-1.1840467027157544,0.3902409076690674,-0.4577043652534485,-0.1945894807577133,walking
1761225792682310400,-0.098883421947807,-0.3135854724228382,-1.006678211465478,0.5032753348350525,-0.5015828609466553,-0.2349211871623993,walking
1761225792692324400,-0.0899877294391393,-0.4289157329112291,-0.5625123024523258,0.5542223453521729,-0.5725930333137512,-0.2776938378810882,walking
1761225792702337300,-0.0499643466085195,-0.6061667352616786,-0.1291746614456176,0.5275508165359497,-0.6480278968811035,-0.3278512954711914,walking
1761225792712350500,-0.1045369907300919,-0.7703145104110241,0.1242062253832817,0.436836838722229,-0.6880168914794922,-0.3799955248832702,walking
1761225792722364400,-0.0984416329970583,-0.8190911085397005,0.2867225999385118,0.2901246249675751,-0.7228497266769409,-0.4111180305480957,walking
1761225792732377300,-0.1472948765585199,-0.7837059069037436,0.3853729437828064,0.1053835973143577,-0.7343708276748657,-0.4363605082035064,walking
1761225792742390300,-0.2782412603843957,-0.7668161469012499,0.3191577195972204,-0.1067941710352897,-0.7367474436759949,-0.4683461487293243,walking
1761225792752404200,-0.4279753467885777,-0.71107087880373,0.0612707535207271,-0.3125075101852417,-0.7176920175552368,-0.5077487826347351,walking
1761225792762417400,-0.6204003547322005,-0.5765542718082666,-0.4367249453574419,-0.4789833128452301,-0.6308072209358215,-0.5440673828125,walking
1761225792772430300,-0.8067267170071601,-0.3206307147592306,-1.1023147604465484,-0.5884807109832764,-0.4844855070114136,-0.5799036622047424,walking
1761225792782443300,-0.9590119126662612,-0.0094780224412679,-1.6060118858367205,-0.6336647272109985,-0.3187953531742096,-0.6112961769104004,walking
1761225792792457200,-1.0177801818467676,0.281171980074048,-1.9398492881715297,-0.6022598147392273,-0.1601033806800842,-0.6342601776123047,walking
1761225792802470100,-0.957364291589707,0.524475125002861,-2.2465298035115,-0.4947463572025299,-0.0244123879820108,-0.6334124803543091,walking
1761225792812483300,-0.888616991643235,0.7095137124896049,-2.4788310774326323,-0.3133576810359955,0.1274102181196212,-0.6182811856269836,walking
1761225792822497300,-0.7845310326162726,0.7623141593068837,-2.3436288262605665,-0.0914394184947013,0.2319539338350296,-0.6016857028007507,walking
1761225792832510200,-0.70394190370664,0.7173124035418034,-1.8735265119582412,0.1318704038858413,0.2505497932434082,-0.5908607840538025,walking
1761225792842523400,-0.5519483844704925,0.6545750845998525,-1.2495236757546662,0.3358477652072906,0.20482037961483,-0.57356196641922,walking
1761225792852537300,-0.3289521510438993,0.6454004290193319,-0.590712561020255,0.4992703199386596,0.1207978129386901,-0.5517863631248474,walking
1761225792862550300,-0.1638426181903108,0.6106891811221837,0.0567354481786489,0.6067959666252136,0.0167901925742626,-0.5248117446899414,walking
1761225792872563500,-0.0962561787167564,0.5653630157083273,0.5431365708529949,0.6630496978759766,-0.0837273150682449,-0.491767942905426,walking
1761225792882577400,-0.1340788731653243,0.5296767852991819,0.8800473892837762,0.6730384230613708,-0.1331870108842849,-0.4670388996601105,walking
1761225792892590300,-0.0622575086689088,0.5432844548910856,1.2385633058011531,0.6216031908988953,-0.1928295642137527,-0.4413194060325622,walking
1761225792902603300,0.030731201817654,0.5924176113724708,1.7029881589889526,0.5003694891929626,-0.2845562994480133,-0.4020308554172516,walking
1761225792912617200,0.1580134371127933,0.5851332995831966,1.8891566272884608,0.3474910855293274,-0.3430702090263366,-0.3349207937717438,walking
1761225792922630400,0.1502054119766689,0.6197784965068102,1.8329086703658104,0.1711264252662658,-0.3622606694698334,-0.2637840211391449,walking
1761225792932643300,0.0318984737650491,0.6552244884192944,1.666455540883541,-0.0079182684421539,-0.3633858263492584,-0.2053171992301941,walking
1761225792942657300,-0.1215750914284028,0.712607586851716,1.2385375868380069,-0.1449823826551437,-0.3304705023765564,-0.1524284183979034,walking
1761225792952670200,-0.2164415876187384,0.8131056043893098,0.6434539711266756,-0.2339930087327957,-0.2572016716003418,-0.0956491157412529,walking
1761225792962683400,-0.300863828417845,0.9014555034935474,0.1931687024503946,-0.2847467362880707,-0.204416736960411,-0.0360747277736663,walking
1761225792972697300,-0.3771754626713693,0.9166811296761036,-0.1316875210493803,-0.3004471957683563,-0.1716493964195251,0.0184349957853555,walking
1761225792982710300,-0.4954402422416954,0.8644242882162332,-0.4633791435271501,-0.2663810849189758,-0.122201420366764,0.0614189505577087,walking
1761225792992723200,-0.6203758778780698,0.8101777342438697,-0.7887018154948949,-0.1941197961568832,-0.0359495505690574,0.0921722128987312,walking
1761225793002737400,-0.6097557727295905,0.788632841911912,-0.931678792321682,-0.0837855711579322,0.045100562274456,0.1217998787760734,walking
1761225793012750300,-0.5306680978914723,0.711042821753025,-0.8418179041326046,0.04171022772789,0.0857335701584816,0.150123044848442,walking
1761225793022763300,-0.4742748507466167,0.5402098697513341,-0.4892518359303474,0.1565928757190704,0.0813486725091934,0.1686589121818542,walking
1761225793032777200,-0.4375425818832591,0.3335129926860332,0.005695581293106,0.2493004500865936,0.0396270379424095,0.1640707850456237,walking
1761225793042790400,-0.434212706808187,0.1587736808955669,0.504519547688961,0.2973430752754211,-0.0241274386644363,0.1509352773427963,walking
1761225793052803300,-0.4051045761477202,0.0659919368237257,0.9239227713674306,0.3110257685184479,-0.0881085246801376,0.1316865533590316,walking
1761225793062816300,-0.3633780426610261,-0.0149801269888877,1.185355447226763,0.2844732403755188,-0.1259432435035705,0.1126478686928749,walking
1761225793072830500,-0.3362290467116982,-0.0820166044294834,1.3688310231804848,0.2319661229848861,-0.1401273012161255,0.096342034637928,walking
1761225793082843400,-0.3225613174956291,-0.0928448724359273,1.377732122516632,0.1593081653118133,-0.1148738712072372,0.0849330574274063,walking
1761225793092856300,-0.3992108054013922,-0.1335281804800033,1.3141922550201417,0.0770701020956039,-0.0579080395400524,0.076623223721981,walking
1761225793102870300,-0.4721712295308709,-0.1806809767991304,1.241407589316368,-0.0185024943202734,0.0218203477561473,0.0585693903267383,walking
1761225793112883500,-0.5737488224660977,-0.2411293080210685,1.202600596538186,-0.106095552444458,0.0704925507307052,0.0334792323410511,walking
1761225793122896400,-0.6182956375379115,-0.2727221316367387,1.039776178947091,-0.1713829487562179,0.105207122862339,0.0179625935852527,walking
1761225793132910300,-0.618498174372688,-0.2095493438869714,0.7713169654518366,-0.2012764662504196,0.1185861378908157,0.0185382943600416,walking
1761225793142923300,-0.6088967082148418,-0.1096440315455198,0.5039858792036771,-0.1958127319812774,0.1114411428570747,0.0345598720014095,walking
1761225793152936200,-0.6812424345120788,-0.0685451284378767,0.2189876188397407,-0.1646245867013931,0.0960416346788406,0.0456001609563827,walking
1761225793162950400,-0.8394164690140634,-0.0663227762132883,0.0013186813831329,-0.1141651347279548,0.0660571008920669,0.0466318689286708,walking
1761225793172963300,-1.0210639527577907,-0.0431172571927309,-0.1975403416633606,-0.0564937070012092,0.0407079830765724,0.0334892757236957,walking
1761225793182976300,-1.1827145042639224,0.0280073663443326,-0.3592155892193317,-0.0071029863320291,0.051101766526699,0.00976397190243,walking
1761225793192990200,-1.2642188483223318,0.1251169104874133,-0.4581371512204408,0.0342472940683364,0.1033142283558845,-0.0092659378424286,walking
1761225793203003400,-1.213351561524719,0.2297323002159595,-0.4695680612951516,0.0636288821697235,0.1887593567371368,-0.0101522374898195,walking
1761225793213016300,-1.0253757515423,0.3196849583417177,-0.3921107276052236,0.0827741250395774,0.278983473777771,0.0165181588381528,walking
1761225793223030300,-0.76071030430682,0.4046095591723919,-0.2377560321956872,0.1058661267161369,0.3583384752273559,0.0706000328063964,walking
1761225793233043500,-0.5443348772594705,0.4950163908064365,-0.0377630366832017,0.1348217129707336,0.4039392173290252,0.1466289609670639,walking
1761225793243056400,-0.3803044814120978,0.4811404256671667,0.2401981646507978,0.1623881012201309,0.3897863924503326,0.232471153140068,walking
1761225793253070300,-0.3326074952136725,0.3445850063204765,0.5446902300357819,0.1913874745368957,0.3149542808532715,0.3051308393478393,walking
1761225793263083300,-0.3826346048600971,0.1213163491606712,0.7754857755690813,0.2073224931955337,0.2047652155160904,0.351518839597702,walking
1761225793273096400,-0.526161909046024,-0.1368891813457012,0.8565332427054643,0.2169556766748428,0.1089169830083847,0.3629771173000335,walking
1761225793283109400,-0.7181473199959844,-0.3281733852237463,0.7580874815225601,0.2176212072372436,0.0643481761217117,0.3469573855400085,walking
1761225793293123300,-0.8251679442353547,-0.3849006500959396,0.5938093579918146,0.2140708714723587,0.0783693343400955,0.3214249014854431,walking
1761225793303136300,-0.7776210340321064,-0.3929068464189768,0.4258452394247055,0.2015228569507599,0.1504866629838943,0.3061689734458923,walking
1761225793313149200,-0.664145826825872,-0.3943985462814569,0.2978092266201972,0.1747539639472961,0.2586778700351715,0.2962945699691772,walking
1761225793323163400,-0.6088439916469156,-0.4150128797650337,0.3418699021428823,0.1323314160108566,0.3558720648288727,0.2935920059680938,walking
1761225793333176300,-0.5870063269134611,-0.4387918147593736,0.3513829958975314,0.0779486447572708,0.4593386054039001,0.2833815515041351,walking
1761225793343189200,-0.56070949081406,-0.4923831196933984,0.4195300649285316,0.0085149742662906,0.5514349937438965,0.2638248801231384,walking
1761225793353203200,-0.4492278685778379,-0.5721364553660154,0.5889198323845863,-0.0648631080985069,0.6031418442726135,0.2444690614938736,walking
1761225793363216400,-0.2431426571374759,-0.5653267753511667,0.7658242132544517,-0.1312053799629211,0.5964623689651489,0.2505533099174499,walking
1761225793373229300,0.0073586008681915,-0.5482283410340547,0.8977344371438026,-0.1881929188966751,0.5323017835617065,0.2732960879802704,walking
1761225793383243300,0.2667604467533528,-0.5542553462386131,0.8844383177191019,-0.2190355211496353,0.4383027851581573,0.3094037771224975,walking
1761225793393256400,0.4326835610121488,-0.6078712010920048,0.6817126823723316,-0.2296501100063324,0.3641758859157562,0.348832756280899,walking
1761225793403269400,0.4461408988805487,-0.6963380045741796,0.4641232398927211,-0.2275025397539138,0.2850877344608307,0.3663395941257477,walking
1761225793413283300,0.355207230360806,-0.738714088010788,0.2691267374932766,-0.2207521200180053,0.1805090904235839,0.3583162128925323,walking
1761225793423296300,0.2862663623373024,-0.7718073793172836,-9.52770680189e-05,-0.2223569303750991,0.0780423730611801,0.34089195728302,walking
1761225793433309400,0.1899049148814752,-0.7723550763279199,-0.3962181629240512,-0.2316575348377227,-0.0032743862830102,0.3201521933078766,walking
1761225793443323400,0.0216635594087187,-0.6950958955585956,-0.8638368437170982,-0.2490548938512802,-0.0357207432389259,0.2927964627742767,walking
1761225793453336300,-0.2137848077659495,-0.5237444726407527,-1.316585872158408,-0.2733282148838043,-0.0286007393151521,0.2685607373714447,walking
1761225793463349200,-0.4632523022770881,-0.3031862434834241,-1.7017513106703757,-0.2923186719417572,0.0221497882157564,0.2421874403953552,walking
1761225793473363500,-0.5668250145522877,-0.0869809488385915,-1.933082278254628,-0.317608118057251,0.103280521929264,0.214736521244049,walking
1761225793483376400,-0.5464163597086444,0.0554997689038515,-2.21607504401505,-0.3207716643810272,0.2471463531255722,0.2035381942987442,walking
1761225793493389300,-0.4416588215630501,0.3658423138827085,-2.5161492929577824,-0.274419367313385,0.4630066156387329,0.2194617688655853,walking
1761225793503402200,-0.3262887770535424,0.7221259413033724,-2.536068629914522,-0.1930209249258041,0.6986154317855835,0.2640166878700256,walking
1761225793513416200,-0.1079517402101773,0.9615390930563212,-2.171049907374382,-0.0778501778841018,0.8621704578399658,0.3142941892147064,walking
1761225793523429400,0.1670144166268408,0.9222586375474928,-1.5456781209051609,0.0473719201982021,0.92283433675766,0.361736536026001,walking
1761225793533442300,0.4386002011774108,0.7195382628977298,-0.7687655274033546,0.1503282040357589,0.8903632164001465,0.3845699727535248,walking
1761225793543456300,0.6110626906096935,0.5369681113511323,-0.0655389323592186,0.236621543765068,0.7860421538352966,0.398971825838089,walking
1761225793553470000,0.7460795022122562,0.4108294566005468,0.5075228211581707,0.3020865023136139,0.6340180039405823,0.4088979363441467,walking
1761225793563483000,0.869437367137894,0.3258604321062565,0.9933774158656596,0.3439476788043976,0.4386224150657654,0.4146591424942016,walking
1761225793573497000,0.9689929892588406,0.1907020200759172,1.3803303223162888,0.3485888540744781,0.2234576493501663,0.4151768982410431,walking
1761225793583510000,1.031256772404909,0.0828325969874858,1.6052379788547753,0.3102630376815796,0.0201729722321033,0.419965535402298,walking
1761225793593523000,0.9251946179341524,-0.0093166943997144,1.5763643510699272,0.2426927536725998,-0.1272541433572769,0.4211423993110657,walking
1761225793603537000,0.6663282854314894,-0.0053290860682725,1.304956224641204,0.1660317927598953,-0.1933932155370712,0.4177942872047424,walking
1761225793613549800,0.4016903107248246,0.0542874705046415,0.8835831621944904,0.0873810574412345,-0.1765940487384796,0.3941282629966736,walking
1761225793623563000,0.0727615496896672,0.1023509519279003,0.3980558997452258,0.0227764975279569,-0.0816707387566566,0.3463634252548218,walking
1761225793633577000,-0.1717954951572231,0.1139431900441646,-0.0541115294158458,-0.0290391817688941,0.0673661082983017,0.2909376323223114,walking
1761225793643590000,-0.3004252908701077,0.1618991194397211,-0.2872206125885248,-0.0629151239991188,0.2134005576372146,0.2380949258804321,walking
1761225793653602800,-0.2814230322256684,0.1795411591142416,-0.3049649435937404,-0.0814780741930008,0.3003076016902923,0.1914754807949066,walking
1761225793663616800,-0.2003724598167464,0.168451025301218,-0.1788321340620517,-0.0830016657710075,0.3253636956214905,0.1422749012708664,walking
1761225793673630000,-0.1511261252844706,0.1491471898943185,-0.068475570333004,-0.0626833662390708,0.3143962919712066,0.0954818874597549,walking
1761225793683643000,-0.0784029805095866,0.1504465820550918,0.0406207642018794,-0.0279695931822061,0.2897913455963135,0.0493684522807598,walking
1761225793693656000,-0.0096765954869799,0.1613724652171135,0.1307172147125005,0.0111457509920001,0.2463452368974685,0.0154198668897151,walking
1761225793703670000,0.086751670127362,0.1489420227110385,0.1595522640526294,0.0511711984872818,0.2088631093502044,-0.0136261656880378,walking
1761225793713683000,0.1997776905276812,0.1639461150974035,0.1984089411914348,0.0780661776661872,0.1803718358278274,-0.0321702435612678,walking
1761225793723695900,0.2105262626277282,0.1822825667768716,0.3350432709932327,0.0951889753341674,0.1353582888841629,-0.0476115122437477,walking
1761225793733710000,0.2488556279568001,0.1890150899022817,0.4742588494598865,0.0848688259720802,0.0898892879486084,-0.0569835565984249,walking
1761225793743723000,0.308976334659569,0.2202081005454063,0.5701765534698963,0.0634934902191162,0.0683813318610191,-0.0580887682735919,walking
1761225793753736000,0.3328112010922283,0.2740630248516797,0.6415495988100767,0.0187946930527687,0.0524844340980052,-0.0503452681005001,walking
1761225793763750000,0.3894735840346664,0.3161515235185623,0.6981821711361408,-0.0395642183721065,0.0333743877708911,-0.0286223944276571,walking
1761225793773762800,0.4579382311148569,0.3092956662744283,0.6570405979305506,-0.0934657827019691,0.0259382873773574,0.000718935043551,walking
1761225793783776000,0.4251238298149779,0.2694002937376499,0.546720859080553,-0.1283571869134903,0.0206873305141925,0.0298635046929121,walking
1761225793793790000,0.3261492955176159,0.2544616678029298,0.3988099329829215,-0.15019191801548,0.0229767002165317,0.0460871718823909,walking
1761225793803803000,0.1778515072605572,0.2143546983420848,0.2183680256366729,-0.1435941904783249,0.0099554397165775,0.0503074824810028,walking
1761225793813815800,-0.0184894046183209,0.1247854865759611,-0.0570657030463218,-0.1182397231459617,0.0228685420006513,0.0251440089195966,walking
1761225793823830000,-0.2034944277621805,0.0622562574267387,-0.2626286076456308,-0.0735414922237396,0.0439440011978149,-0.019908420741558,walking
1761225793833843000,-0.2764741411140188,0.0296633168578147,-0.2543149528086185,-0.0201524160802364,0.0447078272700309,-0.0642854049801826,walking
1761225793843856000,-0.1985430889651179,0.0363332961410284,-0.1171621520906686,0.0261088218539953,0.0163424983620643,-0.0965844914317131,walking
1761225793853869000,-0.0211176410799263,0.0440805492669343,0.1043248823493719,0.0539389103651046,-0.0363617986440658,-0.1036345586180687,walking
1761225793863883000,0.1882100753960199,0.0008984101444482,0.276026433879137,0.0617531538009643,-0.0705043226480484,-0.1103893965482711,walking
1761225793873896000,0.2865969825311564,0.0620306319773197,0.4831359833985567,0.0457885712385177,-0.1352244615554809,-0.0996757671236991,walking
1761225793883908900,0.371488137749955,0.1213286241203546,0.6217857446759939,0.0319350585341453,-0.2006037086248397,-0.075849212706089,walking
1761225793893923000,0.4947298654826357,0.0754477474331855,0.4926233581900596,0.0227763801813125,-0.245309293270111,-0.0555610209703445,walking
1761225793903936000,0.4644974434999749,0.1092950719773769,0.2758908248007297,0.0217982027679681,-0.2693094313144684,-0.0467299781739711,walking
1761225793913949000,0.3362055927708745,0.1185012917399406,0.0787508806318044,0.0368237420916557,-0.2554264962673187,-0.0479909852147102,walking
1761225793923963000,0.2762146681939251,0.1400865160822868,-0.054409635579586,0.0438534207642078,-0.2249969542026519,-0.0466769821941852,walking
1761225793933975800,0.2509719259910285,0.085517890548706,-0.0086252050042152,0.0440432503819465,-0.2298676520586013,-0.0343993529677391,walking
1761225793943989000,0.2071842769897542,0.009237199422717,0.0872515824735164,0.0439337939023971,-0.2562696933746338,-0.029025362804532,walking
1761225793954003000,0.129588749538688,-0.0787473735004663,0.0768798260629177,0.0493927188217639,-0.2921048998832702,-0.0449310466647148,walking
1761225793964015900,0.042714229349792,-0.154666830098629,0.0560837062716484,0.0653330758213996,-0.3294192552566528,-0.0643675923347473,walking
1761225793974029000,-0.0172330752811394,-0.1723895337939262,-0.0300496858268976,0.0906729027628898,-0.3858611285686493,-0.0876482501626014,walking
1761225793984043000,-0.0239356964586302,-0.1562304261535406,-0.2195072587996721,0.1431795209646225,-0.4188835322856903,-0.1036165654659271,walking
1761225793994056000,-0.014955942395702,-0.0368441682726144,-0.4080605764091015,0.2096522450447082,-0.4162579774856567,-0.1131888926029205,walking
1761225794004068900,-0.072271218022611,-0.0526110617250204,-0.3634866906672716,0.2741303145885467,-0.4515587091445923,-0.1257893741130828,walking
1761225794014082000,-0.0751208900989964,-0.1482084477394819,-0.1229167700946331,0.3215024769306183,-0.5195783376693726,-0.1348706036806106,walking
1761225794024096000,0.0356590318749658,-0.2480190675348043,0.0978705916434526,0.3410085141658783,-0.5911904573440552,-0.1484814882278442,walking
1761225794034109000,0.0962142940700985,-0.3970698113173246,0.2543348265528679,0.3237572908401489,-0.6457411646842957,-0.1632841676473617,walking
1761225794044121900,0.1242813364461064,-0.5412374592334032,0.3518108659207821,0.2754206657409668,-0.6790796518325806,-0.1851191520690918,walking
1761225794054136000,0.0941633346233516,-0.6515121898978948,0.4105032933861017,0.1989418119192123,-0.7071226239204407,-0.2100376784801483,walking
1761225794064149000,0.0081423899233341,-0.7000421197891235,0.514036733096838,0.1001609042286872,-0.7403002381324768,-0.2451844811439514,walking
1761225794074162000,-0.0905090864321216,-0.7458166134923696,0.5954249764949083,-0.0182565934956073,-0.7846224904060364,-0.289710521697998,walking
1761225794084176100,-0.1244780280619859,-0.8199380807578563,0.5695587138324976,-0.1465828716754913,-0.8486155867576599,-0.3309463858604431,walking
1761225794094189000,-0.1939931340431794,-0.7564929058074951,0.4896873047381639,-0.2832746505737304,-0.9239670634269714,-0.3728066384792328,walking
1761225794104202000,-0.5706400427957996,-0.4918354226827621,0.0973059434980154,-0.4049137234687805,-0.913860321044922,-0.4177956879138946,walking
1761225794114216000,-0.8381209493108093,-0.2436561961501836,-0.5408090046882629,-0.4985508620738983,-0.8075600862503052,-0.4704160988330841,walking
1761225794124228900,-0.9564581365302204,-0.0678863722681999,-1.0651491051346065,-0.5294922590255737,-0.6928848624229431,-0.5310067534446716,walking
1761225794134242000,-0.9115855601027608,0.2366203061640262,-1.3967512957632542,-0.5188202857971191,-0.5347430109977722,-0.5407935976982117,walking
1761225794144256000,-0.6870872150175273,0.5411749153912067,-1.612858390730619,-0.4731353223323822,-0.371117353439331,-0.5265728831291199,walking
1761225794154269000,-0.5299344133220613,0.6175637430667876,-1.5575181963026523,-0.3924224078655243,-0.2509730160236358,-0.5100842714309692,walking
1761225794164281900,-0.2511483054712414,0.6887263605266809,-1.3901596424132583,-0.2935914397239685,-0.1577202975749969,-0.4619936943054199,walking
1761225794174295000,0.1138091153357177,0.7836679129809141,-1.1754261738866567,-0.1783826053142547,-0.108362041413784,-0.3957171440124511,walking
1761225794184309000,0.2971533199947327,0.6549672987878322,-1.0157932458132506,-0.0560745298862457,-0.0511117987334728,-0.3443405032157898,walking
1761225794194322000,0.3555080034056678,0.6004881051033735,-0.7672469395339488,0.0467510558664798,-0.029334008693695,-0.2983798682689667,walking
1761225794204334800,0.3548219208376482,0.5290390719175339,-0.3729349024921655,0.1091752871870994,-0.0027442085556685,-0.2725658416748047,walking
1761225794214349000,0.3754717640260234,0.2875198877960443,-0.0083902272045612,0.1297180354595184,-0.0010896022431552,-0.2534566223621368,walking
1761225794224362000,0.4144904998587444,0.0656482379525899,0.4120277264744043,0.1165364533662796,-0.0329852178692817,-0.2409381717443466,walking
1761225794234375000,0.4190069543698802,-0.0789887810409069,0.7613602195829152,0.0931067764759063,-0.1258853524923324,-0.2229688018560409,walking
1761225794244389000,0.3405389092674478,-0.0861748931527137,0.8735966057091951,0.0639089494943618,-0.2252811789512634,-0.2130685001611709,walking
1761225794254402000,0.2491219507427886,-0.0238169289171695,0.7441302678406239,0.0365715399384498,-0.3048672676086426,-0.2145879566669464,walking
1761225794264415000,0.0416486824775114,-0.0110597386747598,0.4475093742221593,0.0190282352268695,-0.3253232836723327,-0.2281903177499771,walking
1761225794274429000,-0.0082474577330052,0.1946498809188604,0.1105576392590999,0.0017001284286379,-0.295969694852829,-0.2405961602926254,walking
1761225794284441900,-0.0852803919984027,0.3730938924461603,-0.01092880577147,-0.0288460627198219,-0.2422348260879516,-0.2516038119792938,walking
1761225794294455000,-0.1224855756031349,0.3924707930892706,0.0128922147989273,-0.0656265839934349,-0.2256058305501938,-0.2628091871738434,walking
1761225794304468000,-0.0560686183003708,0.4729904369592666,0.0300035085976123,-0.1121671870350837,-0.1919195055961609,-0.2453425675630569,walking
1761225794314482000,0.0890692263547331,0.582405920445919,-0.1546381885260343,-0.1445742845535278,-0.1325969696044922,-0.2158481627702713,walking
1761225794324494800,0.1588055738711729,0.6613116993784904,-0.2804477574527263,-0.1636483669281005,-0.0700406581163406,-0.1709645688533783,walking
1761225794334508000,0.2133963016387075,0.7568383582442998,-0.336501068586111,-0.1857675313949585,-0.0005478421226143,-0.1077847629785537,walking
1761225794344522000,0.2211897685265168,0.7284715109378099,-0.2772258727967739,-0.1983547061681747,0.0573119968175888,-0.0440116412937641,walking
1761225794354535000,0.242201759558171,0.6324164442837238,-0.2850637268155813,-0.2056614607572555,0.1048208475112915,0.0451811924576759,walking
1761225794364547800,0.2450150999458506,0.6491355238944292,-0.4033013991832733,-0.179455429315567,0.140795350074768,0.1272020190954208,walking
1761225794374562000,0.1905603831155225,0.5798878001451492,-0.5210556719481945,-0.1237101778388023,0.1843580603599548,0.1988163888454437,walking
1761225794384575000,0.1931298682773485,0.5751590180575847,-0.6166513043969869,-0.0579575300216674,0.2158906906843185,0.2773087918758392,walking
1761225794394588000,0.0664908262565732,0.4597685518145561,-0.4594651849538088,0.0049028284847736,0.2548394203186035,0.3291240632534027,walking
1761225794404602000,-0.2149044777119532,0.2778127327740192,-0.141167881578207,0.0387422814965248,0.2754003703594208,0.3422017693519592,walking
1761225794414615000,-0.4127039452355355,0.137303607365489,0.1862006170034408,0.0813665688037872,0.2672449052333832,0.3170841038227081,walking
1761225794424628000,-0.365214500840567,-0.1486345641970634,0.4687380402117967,0.1174715831875801,0.225429281592369,0.2639998197555542,walking
1761225794434642000,-0.3807773230882361,-0.233004453754425,0.5718079540640115,0.1622723639011383,0.1833182871341705,0.2081484943628311,walking
1761225794444654800,-0.4509345628978684,-0.1428998199373483,0.5875099655866622,0.2070180028676986,0.1348937600851059,0.183423176407814,walking
1761225794454668000,-0.5573610937016085,-0.0265624282330274,0.5344692802727222,0.2344211488962173,0.1468644887208938,0.2145969867706298,walking
1761225794464681000,-0.7623926313705742,-0.0144815298169851,0.3655746028572321,0.2620479762554168,0.2542362213134765,0.2303003072738647,walking
1761225794474695000,-0.8689147315032779,-0.18868249694705,0.3488035007983446,0.2653644979000091,0.3670289814472198,0.2136428505182266,walking
1761225794484707800,-0.9113010440729558,-0.4032914623111486,0.6337111602693796,0.2465090304613113,0.4276193678379059,0.1522354036569595,walking
1761225794494721000,-0.8822275828670709,-0.5178565836459398,1.0530910030722618,0.1894012093544006,0.418022483587265,0.0806884467601776,walking
1761225794504735000,-0.7870796211205422,-0.4358750505298376,1.463188638266921,0.0928360521793365,0.3633022606372833,0.0385849364101886,walking
1761225794514748000,-0.6118124129984528,-0.255102888315916,1.6891478496849537,-0.0191070549190044,0.3095537722110748,0.050588522106409,walking
1761225794524761000,-0.4817698461445048,-0.0518073441267013,1.5565981588482856,-0.118729256093502,0.2999640107154846,0.0828545838594436,walking
1761225794534775000,-0.5008377173710614,0.0602460866481065,1.3219289867520332,-0.1980439722537994,0.2936120927333832,0.1105014234781265,walking
1761225794544788000,-0.656741322723031,0.1380272454649209,1.1093769539177416,-0.2521202564239502,0.2880735099315643,0.1290583312511444,walking
1761225794554800600,-0.765161000105366,0.2512631640225649,0.8509171563893556,-0.2802767753601074,0.2946613430976867,0.1310210227966308,walking
1761225794564814800,-0.805503604952991,0.2441618075847625,0.6673655925899744,-0.2829239666461944,0.2955247461795807,0.1393937319517135,walking
1761225794574827800,-0.7227933922361582,0.3065817311406135,0.4705833758175373,-0.257479578256607,0.2956250607967376,0.1776807308197021,walking
1761225794584840700,-0.6473872189223766,0.4112345302700996,0.2686211260586977,-0.2091826349496841,0.3269536793231964,0.2365198135375976,walking
1761225794594853600,-0.6354940981633961,0.3602309037417173,0.1865858169287443,-0.1532563269138336,0.3672887086868286,0.3025493919849396,walking
1761225794604867600,-0.6615015959274023,0.2423059505850076,0.192379013377428,-0.0808124989271164,0.3697172403335571,0.3561465740203857,walking
1761225794614880800,-0.6914508170545101,0.1389700792729854,0.1758966651320457,-0.0008531610947102,0.3583308160305023,0.4095217585563659,walking
1761225794624893700,-0.6918431773729622,-0.0731008920460939,0.201359023168683,0.0777891874313354,0.3173812627792358,0.4200820028781891,walking
1761225794634907600,-0.9450098369292914,-0.2351858894467353,0.2154056686997413,0.134247675538063,0.2815830409526825,0.3751957416534424,walking
1761225794644920600,-1.127342161132023,-0.3463508469492197,0.2699462371826172,0.1629999577999115,0.2654027342796325,0.3166951537132263,walking
1761225794654933800,-1.1585915050722655,-0.4395177909463644,0.3508189322739839,0.1560276597738266,0.2728316783905029,0.2781113982200622,walking
1761225794664947700,-1.0912083330858495,-0.5097632935613393,0.4771943183898925,0.1122437044978141,0.2870393991470337,0.2429041415452957,walking
1761225794674960600,-1.0465411430373788,-0.5748550666749477,0.5557353556632996,0.0533501170575618,0.2986349463462829,0.204228937625885,walking
1761225794684973800,-0.9706630413629114,-0.4895271457403898,0.4957359372526407,-0.0042609819211065,0.3204188048839569,0.1874406337738037,walking
1761225794694987800,-0.9004614509548992,-0.3401291959553957,0.3088368165910243,-0.0403301455080509,0.3606188297271728,0.1842624545097351,walking
1761225794705000700,-0.890235825016722,-0.2043675573348999,0.0863847365111112,-0.0446436665952205,0.4030424356460571,0.183163896203041,walking
1761225794715013600,-0.862184327269718,-0.1033557450562715,-0.1882283234387636,-0.0427201613783836,0.4690875113010406,0.2014433145523071,walking
1761225794725026600,-0.9205347363643348,-0.0693774876087904,-0.5170721552699804,-0.0141609543934464,0.5685936212539673,0.2011349201202392,walking
1761225794735040800,-0.9208645528405904,-0.1211760639071464,-0.6232511410534382,-0.0023170239292085,0.6766188144683838,0.1950534433126449,walking
1761225794745053700,-0.8335472116544842,-0.1683206769198179,-0.514829344779253,-0.0034952063579112,0.7497454881668091,0.1852141320705413,walking
1761225794755066600,-0.6165943865779787,-0.2418430092483758,-0.3349608534067869,-0.0238141920417547,0.7957492470741272,0.1825966089963913,walking
1761225794765080600,-0.3326716099584475,-0.3117401368170976,-0.2506219435095786,-0.0533113628625869,0.8288752436637878,0.1862110644578933,walking
1761225794775093800,-0.1488005501474253,-0.3592489069670438,-0.2787725177168846,-0.0865594521164894,0.8845519423484802,0.182876631617546,walking
1761225794785106700,-0.0423211840447504,-0.3402157051950693,-0.3874818987607956,-0.1165900528430938,0.9656119346618652,0.18306465446949,walking
1761225794795120600,0.0635498957001604,-0.3129530197381973,-0.3242483207345009,-0.1385575234889984,1.0028605461120603,0.1906909793615341,walking
1761225794805133600,0.1869497183376923,-0.3702034317016601,-0.0351706821024417,-0.1638708710670471,0.9412959814071656,0.1884890794754028,walking
1761225794815146800,0.2805382670140825,-0.5587514886140823,0.346117038193345,-0.1980161070823669,0.7491415143013,0.1858358830213546,walking
1761225794825160700,0.3317826617620885,-0.6612655221492052,0.5635685335069894,-0.231206014752388,0.4793420433998108,0.1821804195642471,walking
1761225794835173600,0.3414380865968763,-0.6066226623356342,0.3273480403155088,-0.2463711053133011,0.2521974146366119,0.1784498691558838,walking
1761225794845186800,0.1599409345766529,-0.3424877417802811,-0.2295622043460607,-0.2613221108913421,0.1420828998088836,0.171276643872261,walking
1761225794855199700,-0.1443966708989814,0.0610831219941377,-0.7708668835967779,-0.2867572605609894,0.1329997181892395,0.1674657613039016,walking
1761225794865213700,-0.3615122853217646,0.4541016120940446,-1.2185153740286827,-0.3075368702411651,0.2285890877246856,0.1633365303277969,walking
1761225794875226600,-0.4794939371017739,0.7565677246093749,-1.7431892364740371,-0.3077630698680877,0.4317187964916229,0.1883681714534759,walking
1761225794885239600,-0.5359166660694406,0.9662795655816792,-2.203711237004399,-0.2497628778219223,0.6625000834465027,0.2178507000207901,walking
1761225794895253800,-0.4979000199513509,1.186077916282415,-2.277213111066818,-0.142752006649971,0.8994596004486084,0.3001373410224914,walking
1761225794905266700,-0.2176179744543507,1.348971891978383,-2.0268957034617663,-0.009806478396058,1.0728747844696045,0.3973640203475952,walking
1761225794915279600,0.0357059580229222,1.0624421842634677,-1.4205629639834163,0.1248625740408897,1.1338460445404053,0.4724278450012207,walking
1761225794925293600,0.2819145786022767,0.7089999177485704,-0.6909153950035571,0.2492913156747818,1.0698635578155518,0.5201047658920288,walking
1761225794935306800,0.4030172850122675,0.3665045771837234,0.0921650734782218,0.3367600440979004,0.929365873336792,0.5325730443000793,walking
1761225794945319700,0.4074722551271319,0.0534258852392435,0.8692892639040947,0.3726767599582672,0.7123281359672546,0.5307444930076599,walking
1761225794955333600,0.5142934843368828,-0.1177197859734296,1.4409610243678093,0.3839071989059448,0.4504333436489105,0.5165038704872131,walking
1761225794965346800,0.6695905020978301,-0.3048421939969062,1.7770640335470438,0.3551943302154541,0.1640620231628418,0.4895156919956207,walking
1761225794975359700,0.836363730379939,-0.4777519522726535,1.8553274229228496,0.2985091209411621,-0.0780712440609932,0.4679257273674011,walking
1761225794985372700,0.7459514919184148,-0.3603460545539855,1.525077231425047,0.2313218265771865,-0.2067240178585052,0.4657683074474334,walking
1761225794995386600,0.3829122162250801,-0.1456973417013883,1.07526893261075,0.1427105218172073,-0.2406025975942611,0.4548520743846893,walking
1761225795005399800,-0.0709623821800574,-0.0582476063072681,0.6935656172513961,0.0433570444583892,-0.2414105981588363,0.4220262169837951,walking
1761225795015412700,-0.38341260349527,-0.0392506448924541,0.3370733155161142,-0.0445009432733058,-0.2149168848991394,0.3614721596240997,walking
1761225795025426700,-0.6224499076731502,-0.0324199220895767,-0.1621428650677204,-0.11094681173563,-0.1397504955530166,0.2726381421089172,walking
1761225795035439600,-0.7697225358672439,0.0580219808578491,-0.6394926662802696,-0.1484412848949432,-0.0032602539286017,0.1874061971902847,walking
1761225795045452500,-0.8297687160290778,0.2768663918346166,-0.9239297856301067,-0.1716376841068267,0.1616205871105194,0.1154952496290206,walking
1761225795055466800,-0.8209358596235513,0.4167565085619688,-1.0021616108238696,-0.1785784065723419,0.3036162853240967,0.0622244849801063,walking
1761225795065479700,-0.596787935411185,0.5582078832566738,-0.9610662148475646,-0.1645611226558685,0.433783084154129,0.0362365581095218,walking
1761225795075492600,-0.3127785034215077,0.6760662009179592,-0.7733703908503056,-0.1125003546476364,0.5127158761024475,0.0362997688353061,walking
1761225795085505800,-0.0441776164332404,0.6843167273908853,-0.4892237788796424,-0.0212788246572017,0.5118706226348877,0.0345641858875751,walking
1761225795095519700,0.1381892310936003,0.617249854812026,-0.0138631056576967,0.051896832883358,0.4270777106285095,0.0263691544532775,walking
1761225795105532700,0.2414860125042498,0.6173819567590951,0.3743126205861568,0.1181810423731803,0.3409694731235504,0.0346963256597518,walking
1761225795115545900,0.347424978986755,0.6487327883124351,0.5123375279635191,0.1747708916664123,0.2670388221740722,0.0657722949981689,walking
1761225795125559800,0.444834784718044,0.591024111187458,0.6477566367566585,0.2078598588705063,0.2302115708589553,0.1088124439120292,walking
1761225795135572700,0.3618726795993745,0.4972615393847227,0.788850868576765,0.2160166054964065,0.2130438834428787,0.1360651105642318,walking
1761225795145585700,0.2046898846244439,0.3338257118970155,0.901073810699582,0.214000329375267,0.1567803472280502,0.122905358672142,walking
1761225795155599600,-0.0032099019572138,0.0485170704096555,1.0942506964564322,0.1861883103847503,0.0778274834156036,0.0787237957119941,walking
1761225795165612800,-0.0910198489658534,-0.0740390496790409,1.2298007381528615,0.1246858015656471,-0.0026860008947551,0.0354804508388042,walking
1761225795175625700,-0.0079779566092416,-0.0110036245733499,1.1172685839504002,0.0751785114407539,-0.0019858395680785,0.0185686144977808,walking
1761225795185639700,0.0775933446271344,0.2249941657781601,0.9010334786891936,0.0544633753597736,0.0510898940265178,0.0284782368689775,walking
