timestamp,acc_x,acc_y,acc_z,gyr_x,gyr_y,gyr_z,activity
1761303832820706000,0.0,0.0,0.0,,,,walking
1761303832830843000,0.3214004039764404,-0.0501754283905029,-0.170654296875,,,,walking
1761303832871390200,-0.0602178573608398,1.076138973236084,-1.7117962837219238,1.7750457525253296,-1.1364812850952148,-0.5127299427986145,walking
1761303832881527000,-0.5284414291381836,1.2168455123901367,-2.115424633026123,1.4464099407196045,-1.4706147909164429,-0.6709393858909607,walking
1761303832891664000,-1.0606920719146729,1.169856071472168,-1.6774301528930664,1.181913137435913,-1.5671286582946775,-0.7075902223587036,walking
1761303832901800700,-0.9550879001617432,0.9224853515625,-0.7208309173583984,1.0120211839675903,-1.3435585498809814,-0.6287909150123596,walking
1761303832911937000,-1.0070152282714844,0.4311308860778808,0.5453596115112305,0.9008470177650452,-0.939177632331848,-0.4522560536861419,walking
1761303832922074400,-1.381425142288208,0.0665206909179687,1.4824895858764648,0.8086090683937073,-0.4663818776607513,-0.2231883108615875,walking
1761303832932211200,-1.5247572660446167,-0.2020430564880371,1.76763916015625,0.7365291118621826,-0.1224748790264129,0.0303132943809032,walking
1761303832942348000,-1.4160484075546265,-0.1474714279174804,1.563918113708496,0.7487460374832153,0.019241688773036,0.2697654068470001,walking
1761303832962621700,-1.410221815109253,0.0067319869995117,2.247356414794922,1.194740891456604,0.3161898255348205,0.5977904200553894,walking
1761303832972758500,-1.0904593467712402,0.1560826301574707,2.4295454025268555,1.472065567970276,0.5293754935264587,0.5379273891448975,walking
1761303832982895400,-0.3280069231986999,0.7655205726623535,0.6989545822143555,1.5429238080978394,0.4878378808498382,0.2978644073009491,walking
1761303832993032200,-0.0416235029697418,1.4340906143188477,-0.6471571922302246,1.469011306762695,0.2923667728900909,0.0810136198997497,walking
1761303833003169000,-0.3377315402030945,1.1930408477783203,-1.275651931762695,1.4189218282699585,0.1720298528671264,0.0663532838225364,walking
1761303833013305900,-0.5523866415023804,0.4869608879089355,-0.7945041656494141,1.4781739711761477,0.2031830698251724,0.195852905511856,walking
1761303833023442700,-0.6272603273391724,-0.0822076797485351,0.5915317535400391,1.6235556602478027,0.3436779379844665,0.3186331987380981,walking
1761303833033579500,-0.1232133507728576,-0.1895136833190918,1.4127016067504885,1.8483474254608157,0.3430670797824859,0.366279274225235,walking
1761303833043716400,0.1025361120700836,-0.1457085609436035,2.262808322906494,2.1287262439727783,0.6136724352836609,0.3119138777256012,walking
1761303833053853200,1.112728714942932,-0.1015748977661132,2.988731384277344,2.32114315032959,1.0266051292419434,0.2184542566537857,walking
1761303833063990000,1.3962277173995972,-0.2439274787902832,2.2725300788879395,2.339468717575073,1.3442457914352417,0.1708081662654876,walking
1761303833074126800,0.8439173698425293,-0.3211598396301269,0.8460111618041992,2.231348752975464,1.3961677551269531,0.2239518761634826,walking
1761303833084263700,-0.0191210210323333,-0.4901075363159179,-0.7303647994995117,2.0994057655334477,1.1982532739639282,0.3241308331489563,walking
1761303833094400500,-0.5109338760375977,-0.3832345008850097,-1.3204355239868164,2.0761935710906982,0.9197068810462952,0.3791070878505707,walking
1761303833104537300,-0.1991784572601318,-0.0231456756591796,-0.6837186813354492,2.223407745361328,0.761497437953949,0.3308501541614532,walking
1761303833114674200,0.38145911693573,-0.0021748542785644,0.5525679588317871,2.4695792198181152,0.8207496404647827,0.2697654068470001,walking
1761303833124811000,0.870383620262146,-0.4793429374694824,0.8580846786499023,2.6271777153015137,0.8861103057861328,0.2618243992328644,walking
1761303833134947800,0.7708593606948853,-0.748755931854248,-0.286527156829834,2.6821539402008057,0.804256796836853,0.3027511835098266,walking
1761303833145084700,0.1821489334106445,-0.7504019737243652,-1.3348288536071775,2.7304108142852783,0.5275429487228394,0.3571165800094604,walking
1761303833155221500,-0.1550539135932922,-0.5522103309631348,-1.3787693977355957,2.836087465286255,0.1732515543699264,0.391934871673584,walking
1761303833165358300,0.0662449896335601,-0.6902151107788086,-0.9899282455444336,2.969252109527588,-0.0375671051442623,0.3974325060844421,walking
1761303833175495200,0.5277509689331055,-0.7746753692626953,-0.2599759101867676,3.096308469772339,-0.0241284668445587,0.4047626554965973,walking
1761303833185632000,0.3563804626464844,-0.8593153953552246,0.1081228256225586,3.15800404548645,-0.0418430380523204,0.4566846787929535,walking
1761303833195768800,0.1576582640409469,-0.9654273986816406,-0.8275060653686523,3.13540267944336,-0.1890572309494018,0.5220453143119812,walking
1761303833205905700,0.0311923027038574,-1.0788488388061523,-1.6515090465545654,3.087756633758545,-0.321611076593399,0.5629721283912659,walking
1761303833216042500,0.4677602648735046,-1.0020766258239746,-1.839637756347656,3.0199525356292725,-0.3179459869861603,0.572745680809021,walking
1761303833226179300,0.8453161716461182,-0.8705244064331055,-1.932159662246704,2.886176824569702,-0.1695101112127304,0.6142832636833191,walking
1761303833236316200,0.772718071937561,-0.9727659225463868,-2.398386240005493,2.662606954574585,0.0094681326299905,0.6625401973724365,walking
1761303833246453000,0.3578256368637085,-1.0306501388549805,-2.830160140991211,2.349242210388184,0.3271850645542145,0.7095754742622375,walking
1761303833256589800,0.1593444496393203,-1.097455978393555,-2.457414150238037,1.9888423681259155,0.6631510257720947,0.7541673183441162,walking
1761303833266726700,0.6714752912521362,-1.0964813232421875,-2.222019910812378,1.6412702798843384,1.0449305772781372,0.7932615280151367,walking
1761303833276863500,1.115012288093567,-0.7238750457763672,-2.3753464221954346,1.3590587377548218,1.293545484542847,0.7877638936042786,walking
1761303833287000600,1.5820077657699585,-0.4751253128051758,-3.1038386821746826,1.2258940935134888,1.160380721092224,0.7291225790977478,walking
1761303833297137200,1.6260011196136477,-0.0828256607055664,-3.3626179695129395,1.1837456226348877,0.7474479675292969,0.6607076525688171,walking
1761303833307274000,1.0443782806396484,0.02801513671875,-4.001461029052734,1.1519815921783447,0.2306711971759796,0.6344412565231323,walking
1761303833317410800,0.3779803216457367,-0.1327133178710937,-4.627647399902344,1.142818808555603,-0.3423798978328705,0.6057314276695251,walking
1761303833327548000,0.1947287321090698,-0.2364530563354492,-4.257316589355469,1.162976861000061,-0.8921424150466919,0.5696914196014404,walking
1761303833337684700,0.4093557596206665,-0.2584609985351562,-3.592925786972046,1.1825239658355713,-1.243990421295166,0.5507551431655884,walking
1761303833347821600,0.5876368880271912,-0.1476087570190429,-2.579292058944702,1.1360995769500732,-1.231162667274475,0.5470900535583496,walking
1761303833357958100,0.7169272303581238,-0.3944759368896484,-1.885409951210022,1.0205730199813845,-1.0509626865386963,0.5568636059761047,walking
1761303833368095200,0.7083403468132019,-0.5792169570922852,-1.862861156463623,0.8550334572792053,-0.8432746529579163,0.5428141355514526,walking
1761303833378232000,0.9333547353744508,-0.3485574722290039,-1.896650791168213,0.6791094541549683,-0.6423059105873108,0.5226562023162842,walking
1761303833388369000,1.0985684394836426,-0.0171127319335937,-1.892876386642456,0.5813738703727722,-0.5653391480445862,0.4597389101982116,walking
1761303833398505700,1.4171011447906494,0.4782323837280273,-1.2957228422164917,0.5508314967155457,-0.4566083252429962,0.3699443638324737,walking
1761303833408642600,1.4259984493255615,0.8548316955566406,-0.7466632127761841,0.4891359508037567,-0.3142809271812439,0.2722088098526001,walking
1761303833418779400,1.3296250104904177,0.8984975814819336,-0.9726873636245728,0.3718532621860504,-0.1743968874216079,0.1811925619840622,walking
1761303833428916200,1.0601073503494265,0.7720861434936523,-1.32578444480896,0.235023483633995,-0.1768402755260467,0.0657424330711364,walking
1761303833439053000,1.1014248132705688,1.118146896362305,-1.429932951927185,0.1635543555021286,-0.2299840003252029,-0.0619246400892734,walking
1761303833449190000,1.0491231679916382,1.3257761001586914,-0.7282328605651855,0.1739387512207031,-0.238535851240158,-0.1712663024663925,walking
1761303833459326700,1.106393575668335,1.2588882446289062,0.0387623906135559,0.2020377367734909,-0.0949867516756057,-0.2109713703393936,walking
1761303833469463600,0.850671648979187,1.066669464111328,0.4078297615051269,0.1635543555021286,0.1604237556457519,-0.1810398548841476,walking
1761303833479600400,0.4206357002258301,0.7771511077880859,-0.062366783618927,0.0395523607730865,0.4853945076465606,-0.1682120710611343,walking
1761303833489737200,0.5894051790237427,0.6795978546142578,-0.6131759881973267,-0.1901262104511261,0.8665632009506226,-0.1950893402099609,walking
1761303833499874000,0.7764036655426025,0.8017349243164062,-1.18456768989563,-0.4521796703338623,1.1823712587356567,-0.2616716921329498,walking
1761303833510011000,1.3265037536621094,0.9680204391479492,-1.227893590927124,-0.677582323551178,1.5097854137420654,-0.3526879251003265,walking
1761303833520147700,1.353642463684082,1.253950119018555,-0.7881391048431396,-0.8638907074928284,1.732744574546814,-0.4107184112071991,walking
1761303833530284500,0.9166288375854492,0.7145099639892578,-1.4470791816711426,-0.9885035753250122,1.4810755252838137,-0.4015557169914245,walking
1761303833540421400,-0.1441766023635864,-0.0211610794067382,-4.391735076904297,-0.7124006152153015,-0.0687203183770179,-0.3032093048095703,walking
1761303833550558200,-0.8971135020256042,0.0886869430541992,-6.235278129577637,0.081700824201107,-0.828003466129303,-0.3074852526187897,walking
1761303833560695000,0.6279065608978271,-0.113163948059082,-1.4905600547790527,0.4017847776412964,-0.4718795120716095,-0.396668940782547,walking
1761303833570832000,1.6387476921081543,-1.705124855041504,-0.0249317288398742,0.3089359998703003,-0.1059819981455802,-0.4113292694091797,walking
1761303833580968700,0.8799207210540771,-1.7687649726867676,-0.3805394172668457,0.1262926757335662,-0.0503949001431465,-0.2720561027526855,walking
1761303833591105500,-0.0168551802635192,-1.135030746459961,-0.7412163019180298,0.1360662281513214,0.0706292167305946,-0.2977116703987121,walking
1761303833601242400,0.2830353379249573,-0.1158666610717773,-0.5661126375198364,0.1476723253726959,-0.0180199947208166,-0.4143835008144378,walking
1761303833611379200,0.702375590801239,0.1975526809692382,-0.6272850036621094,0.1421747058629989,-0.0888782739639282,-0.4711923003196716,walking
1761303833621516000,0.2577011585235595,0.6496715545654297,-0.7067877054214478,0.0688730254769325,-0.0760504826903343,-0.4626404345035553,walking
1761303833631652900,-0.0981151461601257,0.5535907745361328,-0.9605944752693176,-0.0539072714745998,-0.0534491352736949,-0.4418716430664062,walking
1761303833641789700,-0.3549375236034393,0.0202484130859375,-0.7200475931167603,-0.1302631795406341,-0.0253501608967781,-0.3423035442829132,walking
1761303833651926500,-0.4791340231895447,-1.2387056350708008,-0.2871305346488952,-0.1626380831003189,0.0003054236294701,-0.212803915143013,walking
1761303833662063400,0.5158220529556274,-0.7388839721679688,-0.3404268324375152,-0.1681357026100158,0.0461189672350883,-0.1486649513244629,walking
1761303833672200200,0.7884630560874939,0.0678882598876953,-0.540822446346283,-0.1791309565305709,0.038177952170372,-0.0662005692720413,walking
1761303833682337000,0.2883689403533935,-0.8020124435424805,-0.7655282616615295,-0.2365505993366241,-0.0021379655227065,0.0113770300522446,walking
1761303833692473900,0.7186267971992493,-0.0714969635009765,-0.9437471628189088,-0.2945810854434967,0.0186308417469263,-0.0283280424773693,walking
1761303833712747500,0.5843766927719116,1.0821189880371094,-1.208292007446289,-0.5047125220298767,-0.1346918195486068,-0.0594812519848346,walking
1761303833722884400,0.128322958946228,0.1013259887695312,-1.041625738143921,-0.5499152541160583,-0.0448972731828689,-0.0063375402241945,walking
1761303833733021200,-0.9552148580551147,0.6343574523925781,0.3450640439987182,-0.4961606860160827,-0.0058030490763485,-0.0490968488156795,walking
1761303833743158000,0.0626580119132995,0.94061279296875,-0.4803663790225982,-0.4167505502700805,0.0021379655227065,-0.1089598834514617,walking
1761303833753294800,0.529338002204895,-0.3584537506103515,-0.8845546841621399,-0.4112529158592224,0.0290152449160814,0.0681858286261558,walking
1761303833763431700,-0.7614136934280396,-1.4560766220092771,-0.8013831377029419,-0.3868190348148346,0.0375671051442623,0.1646996885538101,walking
1761303833773568500,-0.5132478475570679,-0.8533344268798828,-0.7724738121032715,-0.3526115715503692,0.0094681326299905,0.1885227411985397,walking
1761303833783705300,-1.0317527055740356,-0.2020225524902343,-0.6814324855804443,-0.3477247953414917,-0.0491732060909271,0.2441098392009735,walking
1761303833793842200,-1.534172534942627,0.0671548843383789,-0.7969329357147217,-0.2115058600902557,-0.2916795611381531,0.2783172726631164,walking
1761303833803979300,-1.2089171409606934,0.4319324493408203,0.5488404035568237,-0.2915268540382385,-0.1004843711853027,0.3186331987380981,walking
1761303833814116000,-0.2285611033439636,0.0371742248535156,-0.8037194013595581,-0.3697153031826019,0.1280488520860672,0.1989071369171142,walking
1761303833824252700,2.615761995315552,1.8020315170288088,1.328047275543213,-0.30740886926651,0.1653105467557907,0.1152210608124733,walking
1761303833834389500,2.065058946609497,1.9846887588500977,-1.672196626663208,-0.3147390484809875,0.1219403818249702,0.0242048222571611,walking
1761303833844526600,1.525483012199402,0.7756023406982422,-1.355190992355347,-0.2212794125080108,0.0595576092600822,0.033367533236742,walking
1761303833854663400,-0.409755140542984,-0.2654962539672851,-0.800732433795929,-0.1638597846031189,0.0064138961024582,0.0749051421880722,walking
1761303833864800300,-0.8337584137916565,-0.8422307968139648,-0.7384182810783386,-0.09605573117733,0.0180199947208166,0.0632990449666976,walking
1761303833874937000,-0.8144248723983765,-0.9729251861572266,-0.3518109321594238,-0.0471879504621028,0.0039705070666968,0.0791810750961303,walking
1761303833885074000,-0.1299030780792236,-0.0361537933349609,-0.3241596221923828,-0.0154238929972052,0.0332911759614944,0.0187071971595287,walking
1761303833895210800,0.9729675054550172,0.7556209564208984,-0.0814086198806762,0.0090099973604083,0.0852895453572273,-0.075974129140377,walking
1761303833905347600,1.0413241386413574,0.9753856658935548,-0.3034260272979736,0.013896775431931,0.1420983374118805,-0.0967429354786872,walking
1761303833915484400,0.3544619083404541,0.6001224517822266,-0.3305030465126037,0.0255028735846281,0.1836359500885009,-0.0881910696625709,walking
1761303833925621200,0.3178448677062988,0.1614704132080078,-0.3496685028076172,0.0572669319808483,0.2001288384199142,-0.0973537787795066,walking
1761303833935758000,0.138041079044342,-0.1335954666137695,-0.3908038735389709,0.0988045409321785,0.2056264579296112,-0.0845259875059127,walking
1761303833945895000,-0.0914309024810791,-0.2151775360107422,-0.3849971294403076,0.1397313177585601,0.2147891670465469,-0.0686439573764801,walking
1761303833956031700,0.0405402779579162,-0.182342529296875,-0.4785301089286804,0.1696628332138061,0.2318928837776184,-0.0539836250245571,walking
1761303833966168600,0.2434350252151489,-0.012338638305664,-0.5676988363265991,0.181879773736,0.2306711971759796,-0.0637571811676025,walking
1761303833976305400,0.53675377368927,0.1918268203735351,-0.8118361234664917,0.1678302884101867,0.2441098392009735,-0.0833042934536933,walking
1761303833986442200,0.6682067513465881,0.1569280624389648,-0.7656940221786499,0.1556133329868316,0.2667111754417419,-0.1022405624389648,walking
1761303833996579000,0.5360037088394165,-0.0556640625,-0.6848950386047363,0.1519482582807541,0.2893125414848327,-0.1095707267522811,walking
1761303834006716000,0.3900282382965088,-0.1739053726196289,-0.534208357334137,0.1452289372682571,0.285647451877594,-0.1278961449861526,walking
1761303834016852700,0.6133513450622559,0.0194759368896484,-0.6717484593391418,0.1470614820718765,0.2703762650489807,-0.1798181682825088,walking
1761303834026989600,0.91003680229187,0.1491289138793945,-0.5881307125091553,0.1611109673976898,0.2380013614892959,-0.2244100123643875,walking
1761303834037126400,0.6036859750747681,0.0356521606445312,-0.7051502466201782,0.1556133329868316,0.2349471300840377,-0.2256316989660263,walking
1761303834047263200,0.497555136680603,0.0087509155273437,-0.8439443111419678,0.1421747058629989,0.2447206825017929,-0.2311293333768844,walking
1761303834057400000,0.4942865967750549,0.0130853652954101,-0.7875704169273376,0.1348445266485214,0.2398339062929153,-0.230518490076065,walking
1761303834067537000,0.4990496039390564,0.0842094421386718,-0.6859239339828491,0.1165191158652305,0.2386122047901153,-0.2152473032474517,walking
1761303834077673700,0.3695225119590759,0.0151309967041015,-0.6751765012741089,0.0926960706710815,0.2227301746606826,-0.1792073100805282,walking
1761303834087810600,0.2207792997360229,-0.0221948623657226,-0.6320175528526306,0.0841442123055458,0.2086806893348693,-0.1431673318147659,walking
1761303834097947400,0.3055814504623413,0.0005064010620117,-0.5506417751312256,0.0664296373724937,0.224562719464302,-0.1132358089089393,walking
1761303834108084200,0.4904432296752929,0.061161994934082,-0.5082190036773682,0.0645971000194549,0.2459423840045929,-0.0967429354786872,walking
1761303834118221000,0.5917010307312012,0.1356954574584961,-0.3615619838237762,0.0652079433202743,0.2471640706062317,-0.082082599401474,walking
1761303834128358000,0.5129303932189941,0.1384410858154297,-0.4580876231193542,0.0670404881238937,0.2300603538751602,-0.0723090469837188,walking
1761303834138494700,0.6263572573661804,0.228790283203125,-0.3398959040641784,0.0926960706710815,0.2202867865562439,-0.0888019204139709,walking
1761303834148631600,0.5874146223068237,0.4488506317138672,0.0967786908149719,0.127514362335205,0.2208976447582245,-0.0942995473742485,walking
1761303834158768400,0.2540232539176941,0.693263053894043,0.4207559823989868,0.1501157134771347,0.2135674655437469,-0.0936886966228485,walking
1761303834168905200,0.1917918920516967,0.9432001113891602,0.1700284481048584,0.1281252056360244,0.195852905511856,-0.0967429354786872,walking
1761303834179042000,0.3022111058235168,1.3721494674682615,-0.4906012713909149,0.0951394587755203,0.1677539348602295,-0.1101815775036811,walking
1761303834189179000,0.548676073551178,1.847949981689453,-0.6030791997909546,0.0841442123055458,0.1390441060066223,-0.1266744434833526,walking
1761303834199315700,0.6649985313415527,2.0541553497314453,-0.2789807617664337,0.0920852273702621,0.126216322183609,-0.1272853016853332,walking
1761303834209452800,0.5598012804985046,1.8738431930541992,0.1748824119567871,0.1055238619446754,0.1127776727080345,-0.1315612345933914,walking
1761303834219589600,0.6237335205078125,1.825531005859375,0.3243275880813598,0.1122431829571724,0.1097234413027763,-0.151719182729721,walking
1761303834229726200,0.5426793694496155,1.6231365203857422,0.4255312085151672,0.1159082651138305,0.118275299668312,-0.1553842723369598,walking
1761303834239863000,0.6016339063644409,1.2414588928222656,0.448991060256958,0.1299577504396438,0.1213295385241508,-0.1706554591655731,walking
1761303834250000100,0.5885144472122192,0.8148317337036133,0.4158250689506531,0.1598892658948898,0.1274380087852478,-0.1663795262575149,walking
1761303834260137000,0.2549440860748291,0.1962451934814453,0.4091293215751648,0.1843231618404388,0.124994620680809,-0.1462215632200241,walking
1761303834270273800,-0.0239504277706146,-0.2445840835571289,0.337205171585083,0.2209739983081817,0.1201078444719314,-0.123009368777275,walking
1761303834280410600,-0.1406841278076172,-0.5183143615722656,0.3163679838180542,0.2515163719654083,0.1201078444719314,-0.0845259875059127,walking
1761303834290547500,-0.2474771589040756,-0.5951852798461914,0.369193971157074,0.2735068500041961,0.1194969937205314,-0.0570378638803958,walking
1761303834300684300,-0.1481165289878845,-0.5312900543212891,0.4645408987998962,0.2985515892505646,0.1268271654844284,-0.0423775278031826,walking
1761303834310821000,-0.00123131275177,-0.415593147277832,0.5231344103813171,0.3180987238883972,0.1298813968896865,-0.0490968488156795,walking
1761303834320958000,0.155496060848236,-0.2270030975341797,0.5897817611694336,0.3309265077114105,0.124383769929409,-0.0631463378667831,walking
1761303834331094800,0.2027108967304229,-0.1609706878662109,0.6216598749160767,0.3437542915344238,0.1115559786558151,-0.0735307410359382,walking
1761303834341231600,0.1369524300098419,-0.1524896621704101,0.690682053565979,0.3596363365650177,0.0901763290166854,-0.0900236144661903,walking
1761303834351368400,0.0849010944366455,-0.1939868927001953,0.8434073328971863,0.3681881725788116,0.0816244632005691,-0.1046839505434036,walking
1761303834361505300,0.0073200166225433,-0.3017101287841797,0.9905837178230286,0.3694098889827728,0.0706292167305946,-0.1083490327000618,walking
1761303834371642000,-0.0020185708999633,-0.4086313247680664,1.0218878984451294,0.3614688515663147,0.0749051421880722,-0.1199551299214363,walking
1761303834381779000,0.0321492254734039,-0.4362363815307617,1.0278764963150024,0.3474193811416626,0.0724617540836334,-0.1266744434833526,walking
1761303834391915800,-0.0463331937789917,-0.4539928436279297,0.985043466091156,0.3345915973186493,0.0700183659791946,-0.1205659806728363,walking
1761303834402052600,-0.1662488877773285,-0.5356912612915039,1.0004597902297974,0.3187095522880554,0.0613901503384113,-0.105905644595623,walking
1761303834412189400,-0.3087936639785766,-0.557225227355957,1.0451487302780151,0.3022166788578033,0.0516165941953659,-0.0863585323095321,walking
1761303834422326300,-0.3262596130371094,-0.5094699859619141,1.080491304397583,0.2820587158203125,0.0455081202089786,-0.0674222633242607,walking
1761303834432463000,-0.3520926237106323,-0.4714021682739258,1.0518033504486084,0.2619007527828216,0.0485623553395271,-0.0539836250245571,walking
1761303834442600000,-0.3453086018562317,-0.4072847366333008,0.9804064035415648,0.2368560284376144,0.0540599822998046,-0.0454317666590213,walking
1761303834452736800,-0.4062277972698211,-0.3862714767456054,0.9610813856124878,0.205091968178749,0.0558925233781337,-0.0350473597645759,walking
1761303834462873600,-0.4416984915733337,-0.420018196105957,0.944018006324768,0.1782146841287613,0.0589467622339725,-0.0240521114319562,walking
1761303834473010400,-0.4235597848892212,-0.446319580078125,0.9237765073776244,0.1446180939674377,0.0638335421681404,-0.0106134712696075,walking
1761303834483147300,-0.3869403600692749,-0.5105123519897461,0.831467866897583,0.1360662281513214,0.0613901503384113,-0.0063375402241945,walking
1761303834493284000,-0.3316422700881958,-0.5647830963134766,0.8218300938606262,0.1238492801785469,0.062000997364521,-0.0051158457063138,walking
1761303834503421000,-0.4298303127288818,-0.6686573028564453,0.7434141039848328,0.1012479364871978,0.0656660795211792,0.0034360159188508,walking
1761303834513557800,-0.529122531414032,-0.7076330184936523,0.5809292197227478,0.0639862492680549,0.0589467622339725,-0.0038941511884331,walking
1761303834523694600,-0.5703507661819458,-0.6321535110473633,0.5349977016448975,0.0536018460988998,0.0700183659791946,-0.0075592347420752,walking
1761303834533831400,-0.718532145023346,-0.6285276412963867,0.9932399988174438,0.0456608310341835,0.0253501608967781,-0.0075592347420752,walking
1761303834543968300,-0.9532738924026488,-0.4321279525756836,0.5798773169517517,0.0175618585199117,-0.0448972731828689,-0.0155002493411302,walking
1761303834554105000,-0.8728482723236084,-0.0536756515502929,0.3534273505210876,0.0291679557412862,-0.0833806544542312,-0.0368799045681953,walking
1761303834564242200,-0.6153038144111633,0.1773624420166015,0.7354787588119507,0.0303896516561508,-0.1340809762477874,-0.0527619309723377,walking
1761303834574379000,-0.5981637239456177,0.3356599807739258,0.3598130643367767,0.0200052484869956,-0.1615691035985946,-0.0686439573764801,walking
1761303834584515800,-0.4516736268997192,0.5549373626708984,0.5271585583686829,0.0255028735846281,-0.1475196182727813,-0.0778066664934158,walking
1761303834594652700,-0.1966244429349899,0.5516643524169922,0.6855931282043457,-0.0068720318377017,-0.1340809762477874,-0.0765849724411964,walking
1761303834604789500,-0.2344370782375335,0.4675703048706054,0.3327435255050659,-0.0404686294496059,-0.1108687743544578,-0.0662005692720413,walking
1761303834614926300,-0.0596162155270576,0.2840690612792969,0.2575012445449829,-0.0697892978787422,-0.0907108187675476,-0.0472643077373504,walking
1761303834625063200,0.0153104960918426,0.0159559249877929,0.1429523676633834,-0.0862821787595748,-0.0791047215461731,-0.0338256657123565,walking
1761303834635200000,0.0679664611816406,-0.2625579833984375,0.150582879781723,-0.0850604772567749,-0.0791047215461731,-0.0295497365295887,walking
1761303834645336800,0.047446459531784,-0.4752445220947265,0.1239648610353469,-0.0942231863737106,-0.0943759009242057,-0.0393232926726341,walking
1761303834655473700,0.0820735692977905,-0.5772218704223633,0.0355343967676162,-0.119267925620079,-0.1108687743544578,-0.0668114200234413,walking
1761303834665610500,0.0190884321928024,-0.5214338302612305,-0.0586707442998886,-0.1589729934930801,-0.1298050433397293,-0.0936886966228485,walking
1761303834675747300,-0.0959340184926986,-0.5516214370727539,-0.0498006343841552,-0.1815743446350097,-0.1493521481752395,-0.1187334358692169,walking
1761303834685884200,-0.1512556374073028,-0.5649328231811523,0.0838946104049682,-0.1950129866600036,-0.1542389392852783,-0.1388913989067077,walking
1761303834696021000,-0.2856180965900421,-0.4518661499023437,0.1318566501140594,-0.2121167033910751,-0.1737860441207885,-0.1321720778942108,walking
1761303834706157800,-0.4867507815361023,-0.3131093978881836,0.0876924097537994,-0.2261662036180496,-0.1872246861457824,-0.1248419061303138,walking
1761303834716294700,-0.4898832142353058,-0.1488170623779297,0.1100641787052154,-0.2298312783241272,-0.1884463727474212,-0.1181225851178169,walking
1761303834726431500,-0.5819995403289795,-0.0138874053955078,0.1462267935276031,-0.2334963679313659,-0.185392141342163,-0.1095707267522811,walking
1761303834736568300,-0.6075859665870667,0.0989599227905273,0.1633661091327667,-0.2310529798269271,-0.1792836636304855,-0.1034622564911842,walking
1761303834746705200,-0.6223698854446411,0.105264663696289,0.1410105228424072,-0.2273878902196884,-0.167677566409111,-0.0900236144661903,walking
1761303834756842000,-0.5765007734298706,0.1068153381347656,0.1734966933727264,-0.2237228155136108,-0.1658450365066528,-0.082082599401474,walking
1761303834766978800,-0.4900199174880981,0.0989952087402343,0.1228966116905212,-0.2249445021152496,-0.1682884246110916,-0.0723090469837188,walking
1761303834777115600,-0.4221298098564148,0.0348758697509765,0.0259085297584533,-0.2261662036180496,-0.1884463727474212,-0.0668114200234413,walking
1761303834787252500,-0.3347235023975372,0.0402307510375976,-0.0168170630931854,-0.2414373755455017,-0.1811162084341049,-0.0613137930631637,walking
1761303834797389300,-0.2491666078567505,0.0032176971435546,-0.2053998708724975,-0.2475458532571792,-0.1798945218324661,-0.0576487109065055,walking
1761303834807526100,-0.1074348017573356,-0.0308465957641601,0.0412123799324035,-0.2347180545330047,-0.1750077456235885,-0.0448209159076213,walking
1761303834817663000,-0.1506727933883667,-0.0689897537231445,0.029280662536621,-0.2365505993366241,-0.1731752008199691,-0.0313822776079177,walking
1761303834827799800,-0.1467025578022003,-0.0170021057128906,-0.1328281462192535,-0.2334963679313659,-0.1768402755260467,-0.0258846525102853,walking
1761303834837936600,-0.0661083161830902,0.0341224670410156,-0.0844187140464782,-0.226777046918869,-0.1792836636304855,-0.0161110963672399,walking
1761303834848073500,-0.108792595565319,0.0420207977294921,-0.1305100917816162,-0.2218902707099914,-0.1792836636304855,0.0028251686599105,walking
1761303834858210300,-0.1104286760091781,0.0074615478515625,-0.1831289231777191,-0.2243336588144302,-0.1780619770288467,0.0235939752310514,walking
1761303834868347100,-0.0849389731884002,-0.057098388671875,-0.2088537812232971,-0.2231119573116302,-0.1860029846429824,0.0345892272889614,walking
1761303834878484000,-0.0209622830152511,-0.0759201049804687,-0.2303699254989624,-0.2084516286849975,-0.1963873952627182,0.0449736304581165,walking
1761303834888620800,-0.0015145763754844,-0.1344947814941406,-0.2645747363567352,-0.1974563747644424,-0.2037175595760345,0.0553580336272716,walking
1761303834898757600,0.0048287883400917,-0.1873464584350586,-0.3030157387256622,-0.1986780762672424,-0.2086043357849121,0.065131589770317,walking
1761303834908894700,0.0553790405392646,-0.1852197647094726,-0.3185378909111023,-0.1876828223466873,-0.2055501043796539,0.0694075226783752,walking
1761303834919031600,0.0642028450965881,-0.1619815826416015,-0.3187606632709503,-0.1785201132297516,-0.1994416266679763,0.0785702317953109,walking
1761303834929168400,0.0030489289201796,-0.1556844711303711,-0.3341315388679504,-0.1650814712047577,-0.2000524699687957,0.094452254474163,walking
1761303834939305200,-0.0036562057211995,-0.1378145217895507,-0.3477425277233124,-0.1498102843761444,-0.1915006190538406,0.1023932695388794,walking
1761303834949442000,0.0097987800836563,-0.1461830139160156,-0.3507977724075317,-0.1406475752592086,-0.1847812980413437,0.1146102175116539,walking
1761303834959579000,-0.1237222477793693,-0.1120891571044921,-0.3668968081474304,-0.1302631795406341,-0.1792836636304855,0.1231620758771896,walking
1761303834969715700,-0.1726879179477691,-0.0550870895385742,-0.3392693996429443,-0.119267925620079,-0.1719534993171692,0.124383769929409,walking
1761303834979852500,-0.2615919709205627,-0.0368108749389648,-0.3010725677013397,-0.1027750521898269,-0.1743968874216079,0.1317139416933059,walking
1761303834989989400,-0.3227207362651825,-0.0424795150756835,-0.2903884649276733,-0.0887255668640136,-0.1756185889244079,0.1274380087852478,walking
1761303835000126200,-0.3136542439460754,0.0271644592285156,-0.2995795607566833,-0.0734543800354003,-0.1798945218324661,0.1176644563674926,walking
1761303835010263000,-0.2914875447750091,0.0437469482421875,-0.2908357977867126,-0.0600157417356967,-0.1713426560163498,0.1030041202902793,walking
1761303835020399900,-0.1953699588775634,0.1022424697875976,-0.2659274339675903,-0.0374143943190574,-0.1658450365066528,0.0895654782652854,walking
1761303835030536700,-0.2176735997200012,0.0795412063598632,-0.1898779273033142,-0.0154238929972052,-0.1505738496780395,0.0816244632005691,walking
1761303835040673500,-0.2350261211395263,0.0640821456909179,-0.1761747002601623,0.0102316914126276,-0.1524063944816589,0.0828461572527885,walking
1761303835050810400,-0.283693253993988,0.1145992279052734,-0.2189525365829467,0.0371089726686477,-0.1530172377824783,0.0932305604219436,walking
1761303835060947200,-0.2471935600042343,0.2088432312011718,-0.3412760496139526,0.0590994730591774,-0.1597365587949752,0.0968956500291824,walking
1761303835071084000,-0.1760413348674774,0.3225774765014648,-0.3820890784263611,0.0774248912930488,-0.160958245396614,0.0975064933300018,walking
1761303835081220900,-0.0985488519072532,0.4366874694824219,-0.4044915437698364,0.0902526825666427,-0.1566823273897171,0.0932305604219436,walking
1761303835091357700,-0.0602969378232955,0.5418014526367188,-0.4304494857788086,0.0981936976313591,-0.1493521481752395,0.0968956500291824,walking
1761303835101494500,-0.1092794090509414,0.5109844207763672,-0.5499933958053589,0.0994153916835784,-0.1548497825860977,0.0913980230689048,walking
1761303835111631400,-0.0450013950467109,0.530034065246582,-0.5528550148010254,0.1165191158652305,-0.1615691035985946,0.0968956500291824,walking
1761303835121768200,-0.2388464212417602,0.4004144668579101,-0.5421880483627319,0.1336228400468826,-0.1762294322252273,0.124994620680809,walking
1761303835131905000,-0.3729707598686218,0.2541418075561523,-0.5590104460716248,0.1427855491638183,-0.1890572309494018,0.1488176584243774,walking
1761303835142041900,-0.4404977560043335,0.1337957382202148,-0.5970205068588257,0.1635543555021286,-0.2067717909812927,0.1640888452529907,walking
1761303835152178700,-0.3165284097194671,0.1260623931884765,-0.590252697467804,0.1812689304351806,-0.2189887464046478,0.1671430766582489,walking
1761303835162315500,-0.2554934620857239,0.1419830322265625,-0.5585945248603821,0.1959292590618133,-0.2214321345090866,0.1640888452529907,walking
1761303835172452400,-0.2446915060281753,0.2000541687011718,-0.4162048101425171,0.2020377367734909,-0.2134911119937896,0.1628671437501907,walking
1761303835182589200,-0.373492419719696,0.3936290740966797,-0.0739654600620269,0.2234173864126205,-0.2147128134965896,0.1445417255163192,walking
1761303835192726000,-0.4434605538845062,0.8265256881713867,0.2590312659740448,0.2112004458904266,-0.2018850147724151,0.1194969937205314,walking
1761303835202862800,-0.439405620098114,1.2359495162963867,0.1814766824245453,0.1623326539993286,-0.1737860441207885,0.0981173440814018,walking
1761303835212999700,-0.1867838054895401,1.5328264236450195,-0.1184359192848205,0.1146865710616111,-0.1328592747449875,0.0852895453572273,walking
1761303835223136500,0.1177247166633606,1.6718454360961914,-0.0737614333629608,0.0969720035791397,-0.1023169159889221,0.0907871723175048,walking
1761303835233273300,0.3482006788253784,1.6297931671142578,0.2029268145561218,0.0700947195291519,-0.0778830274939537,0.0987281873822212,walking
1761303835243410200,0.3760647177696228,1.369710922241211,0.2312079966068267,0.0334438867866992,-0.0442864261567592,0.1103342846035957,walking
1761303835253547000,0.3474036753177643,0.958683967590332,0.3394343256950378,0.013896775431931,-0.021074229851365,0.1066692024469375,walking
1761303835263684000,0.3857795298099518,0.4487180709838867,0.5366719961166382,-0.0209215190261602,-0.0485623553395271,0.0987281873822212,walking
1761303835273821000,0.1430240869522094,0.001561164855957,-0.1597215235233307,-0.050853032618761,-0.0931542068719863,0.0999498814344406,walking
1761303835283957800,0.0093826949596405,-0.5489101409912109,-0.316039890050888,-0.0172564350068569,-0.1371352076530456,0.1066692024469375,walking
1761303835294094600,-0.1484222412109375,-1.156102180480957,-0.0087422728538513,0.0010689827613532,-0.1695101112127304,0.1341573297977447,walking
1761303835304231400,-0.5607317090034485,-1.539586067199707,-0.2223593890666961,0.0267245676368474,-0.1798945218324661,0.1628671437501907,walking
1761303835314368300,-0.6287426352500916,-1.5090627670288086,0.0839876234531402,0.0438282899558544,-0.167677566409111,0.1708081662654876,walking
1761303835324505000,-0.5868323445320129,-1.2521343231201172,0.164981871843338,0.0444391369819641,-0.1511846929788589,0.1720298528671264,walking
1761303835334642000,-0.5464218854904175,-0.8794364929199219,0.1885088086128235,0.0462716780602932,-0.1218640282750129,0.1628671437501907,walking
1761303835344778800,-0.5102505683898926,-0.5845651626586914,0.2003278732299804,0.0499367639422416,-0.1041494607925415,0.1567586809396743,walking
1761303835354915600,-0.433681458234787,-0.2194910049438476,0.2041466534137725,0.0658187940716743,-0.1010952219367027,0.1329356282949447,walking
1761303835365052400,-0.2157996743917465,0.0580692291259765,0.3553472459316253,0.0859767496585846,-0.0821589529514312,0.1005607321858406,walking
1761303835375189200,-0.2085463851690292,0.1030874252319336,0.4615945816040039,0.0963611528277397,-0.0613901503384113,0.0767376869916915,walking
1761303835385326000,-0.3352569937705993,0.1599264144897461,0.4376484453678131,0.0871984437108039,-0.0393996499478817,0.0816244632005691,walking
1761303835395463000,-0.3401581048965454,0.08062744140625,0.3855468034744262,0.0914743766188621,-0.0247393138706684,0.0852895453572273,walking
1761303835405599700,-0.2261024415493011,0.051762580871582,0.4978790283203125,0.0890309885144233,-0.0076355906203389,0.0889546349644661,walking
1761303835415736600,-0.0838010013103485,-0.0627851486206054,0.5202966332435608,0.0774248912930488,0.0113006746396422,0.0889546349644661,walking
1761303835425873400,-0.0042271614074707,-0.2126054763793945,0.5632121562957764,0.0694838762283325,0.0302369389683008,0.0913980230689048,walking
1761303835436010200,0.0244218707084655,-0.4476528167724609,0.5793335437774658,0.0664296373724937,0.0491732060909271,0.0975064933300018,walking
1761303835446147000,-0.0280059576034545,-0.636347770690918,0.583246111869812,0.0639862492680549,0.0455081202089786,0.1201078444719314,walking
1761303835456284000,-0.0984072089195251,-0.7264528274536133,0.5203959345817566,0.0639862492680549,0.0400104969739913,0.1347681730985641,walking
1761303835466420700,0.1033175587654113,-0.6039161682128906,0.554882287979126,0.0566560849547386,0.032069481909275,0.1347681730985641,walking
1761303835476557600,0.2619689702987671,-0.5629301071166992,0.5884929895401001,0.0493259169161319,0.0351237170398235,0.1286597102880478,walking
1761303835486694400,0.3200477957725525,-0.5365133285522461,0.5662341117858887,0.0407740548253059,0.0418430380523204,0.1030041202902793,walking
1761303835496831200,0.5500370860099792,-0.4767847061157226,0.5525506734848022,0.0297788046300411,0.0345128700137138,0.0987281873822212,walking
1761303835506968000,0.2429316639900207,-0.2813892364501953,0.456481009721756,0.0389415137469768,0.0131332157179713,0.0938414111733436,walking
1761303835517105000,0.2951647043228149,-0.260869026184082,0.5804691314697266,0.0413849018514156,0.0100789796561002,0.0895654782652854,walking
1761303835527241700,0.1423385739326477,-0.2689542770385742,0.5574038028717041,0.0542126931250095,0.0088572856038808,0.1109451353549957,walking
1761303835537378600,0.0417656302452087,-0.2841739654541015,0.8154311776161194,0.0725381150841713,-0.0088572856038808,0.118275299668312,walking
1761303835547515400,0.0177090167999267,-0.2969398498535156,0.7866458296775818,0.07498150318861,-0.0271827038377523,0.1194969937205314,walking
1761303835557652200,-0.0320459008216857,-0.3073234558105469,0.7542517185211182,0.0847550556063652,-0.038177952170372,0.1146102175116539,walking
1761303835567789000,0.1703514456748962,-0.2867908477783203,0.8735543489456177,0.0975828468799591,-0.040621344000101,0.0993390381336212,walking
1761303835577926100,0.3397570252418518,-0.3236608505249023,0.9857348799705504,0.1030804738402366,-0.0271827038377523,0.0883437842130661,walking
1761303835588062700,0.3755281567573547,-0.3246212005615234,0.9108348488807678,0.0969720035791397,-0.0241284668445587,0.0828461572527885,walking
1761303835598199600,0.397222638130188,-0.2825870513916015,0.7887254357337952,0.07498150318861,-0.0259610079228878,0.0791810750961303,walking
1761303835608336600,0.384062647819519,-0.1905965805053711,0.6527278423309326,0.0499367639422416,-0.0363454110920429,0.0687966719269752,walking
1761303835618473500,0.5147049427032471,-0.101318359375,0.6231037378311157,0.0340547338128089,-0.0510057471692562,0.0620773509144783,walking
1761303835628610300,0.5281218886375427,-0.0409469604492187,0.6113525629043579,0.0193943995982408,-0.0687203183770179,0.0602448098361492,walking
1761303835638747100,0.5133626461029053,-0.1000375747680664,0.6334396600723267,-0.0019852535333484,-0.08582404255867,0.0547471866011619,walking
1761303835648884000,0.5558807253837585,-0.0896787643432617,0.6634426116943359,-0.0184781290590763,-0.0962084457278251,0.0547471866011619,walking
1761303835659020800,0.5725172758102417,-0.074533462524414,0.5809741020202637,-0.0459662564098835,-0.1078145429491996,0.0492495596408844,walking
1761303835669157600,0.4855672121047973,-0.0616731643676757,0.482216864824295,-0.0697892978787422,-0.1188097894191742,0.0584122687578201,walking
1761303835679294500,0.4199899435043335,-0.1274909973144531,0.4323687851428985,-0.0862821787595748,-0.1298050433397293,0.0620773509144783,walking
1761303835689431300,0.3919956088066101,-0.1571693420410156,0.426698088645935,-0.1003316640853881,-0.1365243643522262,0.0700183659791946,walking
1761303835699568000,0.3329840898513794,-0.1914377212524414,0.4052416980266571,-0.1162136942148208,-0.1450762301683426,0.0706292167305946,walking
1761303835709705000,0.3507610559463501,-0.1587371826171875,0.3849732875823974,-0.1290414780378341,-0.1426328420639038,0.0681858286261558,walking
1761303835719841800,0.2636116743087768,-0.1499290466308593,0.32730633020401,-0.1461452096700668,-0.1420219838619232,0.0669641271233558,walking
1761303835729978600,0.3066322803497314,-0.0910463333129882,0.2778410911560058,-0.1614163815975189,-0.1365243643522262,0.056579727679491,walking
1761303835740115500,0.2977825999259949,-0.0895929336547851,0.2389207184314727,-0.1772984117269516,-0.1371352076530456,0.0486387126147747,walking
1761303835750252300,0.1773127913475036,-0.1246118545532226,0.1919667720794677,-0.1864611208438873,-0.1469087600708007,0.0431410893797874,walking
1761303835760389000,0.1734287142753601,-0.1332178115844726,0.2112064361572265,-0.1919587552547454,-0.1487413048744201,0.026648212224245,walking
1761303835770526000,0.1613227128982544,-0.2146997451782226,0.2063144743442535,-0.1944021433591842,-0.1432436853647232,0.0150421140715479,walking
1761303835780662800,0.0797388553619384,-0.261871337890625,0.1467409133911132,-0.2005106061697006,-0.138967752456665,0.0052685574628412,walking
1761303835790799600,-0.0518454313278198,-0.3882923126220703,0.123393177986145,-0.2017323076725006,-0.1420219838619232,0.0003817795368377,walking
1761303835800936400,-0.0365301370620727,-0.4255695343017578,0.100752055644989,-0.1986780762672424,-0.1426328420639038,-0.0112243182957172,walking
1761303835811073300,-0.0686125755310058,-0.4339160919189453,0.11588716506958,-0.2011214643716812,-0.1371352076530456,-0.0106134712696075,walking
1761303835821210000,-0.0385529994964599,-0.4020137786865234,0.0964762568473815,-0.2139492481946945,-0.1249182671308517,-0.0142785543575882,walking
1761303835841483800,0.1425942182540893,-0.3891115188598633,0.0659248232841491,-0.2225011140108108,-0.0882674306631088,-0.0216087214648723,walking
1761303835861757400,0.1079962849617004,-0.3807315826416015,-0.0779966711997985,-0.2548760175704956,-0.0656660795211792,-0.0197761803865432,walking
1761303835871894300,0.1460936665534973,-0.3704395294189453,-0.0779595375061035,-0.2603736519813537,-0.0577250644564628,-0.0271063465625047,walking
1761303835882031000,0.2993215918540954,-0.3249454498291015,-0.0430245995521545,-0.2640387415885925,-0.0479515083134174,-0.030771430581808,walking
1761303835892168000,0.3157015442848205,-0.3414039611816406,-0.00086110830307,-0.2548760175704956,-0.0284043978899717,-0.0283280424773693,walking
1761303835902304800,0.2658056616783142,-0.3387680053710937,0.0228058099746704,-0.2438807636499405,-0.0229067727923393,-0.0271063465625047,walking
1761303835912441600,0.3085992932319641,-0.2937965393066406,0.0019598007202148,-0.2359397560358047,-0.0015271181473508,-0.0258846525102853,walking
1761303835922578700,0.2462854385375976,-0.2072019577026367,-0.0665045976638794,-0.2206685692071914,0.0009162708884105,-0.0173327904194593,walking
1761303835932715500,0.1578041315078735,-0.1219968795776367,-0.1820635199546814,-0.2084516286849975,-0.0003054236294701,-0.0038941511884331,walking
1761303835942852000,0.0536807775497436,0.0230007171630859,-0.2499688863754272,-0.1986780762672424,-0.0058030490763485,0.0022143214009702,walking
1761303835952989200,0.1568538546562194,0.2030315399169922,-0.2487989664077758,-0.1785201132297516,-0.0149657577276229,-0.0063375402241945,walking
1761303835963126000,0.2596904039382934,0.3043680191040039,-0.1388432383537292,-0.1479777544736862,-0.0051922015845775,-0.0197761803865432,walking
1761303835973262800,0.3462910056114197,0.4131250381469726,0.0109554529190063,-0.1284306347370147,0.0222959257662296,-0.037490751594305,walking
1761303835983399700,0.3429856300354004,0.4399213790893554,0.0291607975959777,-0.1211004704236984,0.0601684562861919,-0.0442100688815116,walking
1761303835993536500,0.2042505145072937,0.3788976669311523,0.0066950321197509,-0.0948340371251106,0.1231620758771896,-0.0490968488156795,walking
1761303836003673300,0.284714937210083,0.2785892486572265,0.5241522192955017,-0.065513364970684,0.1286597102880478,-0.0515402369201183,walking
1761303836013810200,0.2019683718681335,0.1942958831787109,-0.01486337184906,-0.0942231863737106,0.1048366576433181,-0.0594812519848346,walking
1761303836023947000,0.1647137403488159,0.1862201690673828,-0.4915401339530945,-0.0526855774223804,0.118275299668312,-0.075974129140377,walking
1761303836034083800,0.3398007154464721,-0.0881872177124023,0.1367676854133606,-0.0062611843459308,0.0956739485263824,-0.0765849724411964,walking
1761303836044220700,0.163417637348175,-0.3722972869873047,-0.1147596836090087,0.0120642334222793,0.1066692024469375,-0.0741415843367576,walking
1761303836054357500,0.1180129051208496,-0.512969970703125,0.0817652940750122,0.0285571087151765,0.1475959718227386,-0.0796392112970352,walking
1761303836064494300,0.1899014115333557,-0.5383310317993164,0.1920166015625,0.0248920265585184,0.179360032081604,-0.0888019204139709,walking
1761303836074631200,0.2275029420852661,-0.4244956970214844,0.0527335405349731,0.0224486365914344,0.2147891670465469,-0.1083490327000618,walking
1761303836084768000,0.3057929277420044,-0.2937850952148437,-0.1175310611724853,0.021226942539215,0.2459423840045929,-0.1187334358692169,walking
1761303836094905300,0.2540781497955322,-0.3185014724731445,-0.2643206119537353,0.0413849018514156,0.2673220336437225,-0.1248419061303138,walking
1761303836105042200,0.2241263389587402,-0.2983779907226562,-0.1108771562576294,0.0792574286460876,0.2899233698844909,-0.1199551299214363,walking
1761303836115178800,0.1536207795143127,-0.2599153518676758,-0.0373312830924987,0.1079672500491142,0.3027511835098266,-0.1083490327000618,walking
1761303836125315600,-0.0440332293510437,-0.2008609771728515,-0.1408403515815735,0.1159082651138305,0.3106921911239624,-0.0955212414264679,walking
1761303836135452700,-0.0614166855812072,-0.1003780364990234,-0.2477828860282898,0.111632339656353,0.3210766017436981,-0.099186323583126,walking
1761303836145589500,0.1158320903778076,0.0430994033813476,-0.25884610414505,0.1122431829571724,0.3455104827880859,-0.1107924208045005,walking
1761303836155726300,0.2325276136398315,0.1040201187133789,-0.259648859500885,0.1195733472704887,0.3589491248130798,-0.123009368777275,walking
1761303836165863200,0.2826284766197204,0.1214799880981445,-0.2767868638038635,0.1220167428255081,0.38093963265419,-0.1346154659986496,walking
1761303836176000000,0.2350989580154419,0.093693733215332,-0.2904734015464782,0.1543916463851928,0.3827721774578094,-0.1321720778942108,walking
1761303836186136800,0.1066952347755432,0.042694091796875,-0.2793698906898498,0.188599094748497,0.3803287744522095,-0.1162900477647781,walking
1761303836196273700,0.04984050989151,0.0607357025146484,-0.3364618718624115,0.2154763638973236,0.3858264088630676,-0.1040730997920036,walking
1761303836206410500,0.0925609469413757,0.1560964584350586,-0.4095568656921386,0.235023483633995,0.3962107896804809,-0.1016297116875648,walking
1761303836216547300,0.1208482980728149,0.2239055633544922,-0.435257226228714,0.2496838122606277,0.4010975956916809,-0.1065164878964424,walking
1761303836226684200,0.1393706798553466,0.2269906997680664,-0.4167301952838897,0.263733297586441,0.4010975956916809,-0.1089598834514617,walking
1761303836236821000,0.1035627722740173,0.2018280029296875,-0.4451819360256195,0.2673983871936798,0.4017084240913391,-0.1114032715559005,walking
1761303836246957800,0.1644515991210937,0.2501392364501953,-0.5478383302688599,0.2728960216045379,0.391934871673584,-0.1089598834514617,walking
1761303836257094700,0.3209729194641113,0.3163614273071289,-0.6195983290672302,0.3040492236614227,0.3571165800094604,-0.1138466596603393,walking
1761303836267231500,0.2725066542625427,0.4897127151489258,-0.3929067850112915,0.3327590525150299,0.3332935273647308,-0.1175117418169975,walking
1761303836277368300,-0.000314176082611,0.925917625427246,0.1144536137580871,0.399952232837677,0.3247416615486145,-0.1278961449861526,walking
1761303836287505200,-0.1262343525886535,1.3971891403198242,0.7290865182876587,0.4274403750896454,0.3381803035736084,-0.1395022422075271,walking
1761303836297642000,-0.0715638399124145,2.011530876159668,0.1448906362056732,0.3797942698001861,0.327795922756195,-0.1602710485458374,walking
1761303836307778800,0.253446102142334,2.7933740615844727,-0.5451620817184448,0.3303156495094299,0.2954210042953491,-0.1798181682825088,walking
1761303836317915600,0.3989181518554687,3.2413034439086914,-0.4720983505249023,0.3229855000972748,0.2453315258026123,-0.1871483325958252,walking
1761303836328052500,0.3840714693069458,3.1772327423095703,0.0141218602657318,0.3242071866989136,0.2086806893348693,-0.1895917207002639,walking
1761303836338189300,0.3779993057250976,2.7269115447998047,0.2432488203048706,0.2954973578453064,0.179360032081604,-0.182872399687767,walking
1761303836348326100,0.2837370336055755,2.0897464752197266,0.2049215734004974,0.2283041626214981,0.1659213900566101,-0.1608818918466568,walking
1761303836358463000,0.3395324051380157,1.256697654724121,0.1836035847663879,0.157445877790451,0.1506502032279968,-0.1315612345933914,walking
1761303836368599800,0.4850731492042541,0.2186470031738281,0.2081250548362732,0.1134648770093917,0.1463742703199386,-0.099797174334526,walking
1761303836378736600,0.5326944589614868,-0.9188470840454102,0.1972666978836059,0.0945286154747009,0.148206815123558,-0.0558161698281765,walking
1761303836388873500,0.4086093306541443,-1.9717721939086916,0.2011806070804596,0.0988045409321785,0.1512610465288162,-0.0112243182957172,walking
1761303836399010300,0.3574834764003753,-2.6229143142700195,0.1702287495136261,0.1085781008005142,0.154926136136055,0.026648212224245,walking
1761303836409147100,0.2800054252147674,-2.8424038887023926,0.0775399208068847,0.1104106456041336,0.1366007179021835,0.0523037947714328,walking
1761303836419284000,0.3028291761875152,-2.61482572555542,0.0395480692386627,0.104913018643856,0.1152210608124733,0.0535254925489425,walking
1761303836429420800,0.2797510623931885,-2.08951187133789,0.0214736461639404,0.0865876004099845,0.0773485377430915,0.033367533236742,walking
1761303836439558000,0.2238472402095794,-1.5562047958374023,0.080325648188591,0.0664296373724937,0.0528382882475853,0.0034360159188508,walking
1761303836449694700,0.0847561955451965,-1.0793914794921875,0.2477477192878723,0.0542126931250095,0.0229067727923393,-0.0234412644058465,walking
1761303836459831300,-0.0955113470554351,-0.6612386703491211,0.3895198702812195,0.0401632077991962,0.0027488125488162,-0.0381015986204147,walking
1761303836469968400,-0.2743591070175171,-0.3182649612426758,0.5223743915557861,0.0255028735846281,-0.019241688773036,-0.0478751547634601,walking
1761303836480105200,-0.3492923378944397,0.0022296905517578,0.7007678747177124,0.0303896516561508,-0.032069481909275,-0.0558161698281765,walking
1761303836490242000,-0.3338517546653747,0.2071447372436523,0.9275052547454834,0.0413849018514156,-0.0290152449160814,-0.0741415843367576,walking
1761303836500379000,-0.3000303506851196,0.3183002471923828,1.0638569593429563,0.051158457994461,-0.0253501608967781,-0.0912453085184097,walking
1761303836510515700,-0.3729269802570343,0.3479785919189453,1.1033248901367188,0.0413849018514156,-0.0149657577276229,-0.099186323583126,walking
1761303836520652500,-0.4921744465827942,0.2320184707641601,1.0150022506713867,0.0303896516561508,-0.0009162708884105,-0.0869693756103515,walking
1761303836530789400,-0.5986939668655396,0.0353298187255859,0.888938307762146,0.0090099973604083,0.0113006746396422,-0.0674222633242607,walking
1761303836540926200,-0.5316388607025146,-0.1440210342407226,0.8089205026626587,-0.0111479628831148,0.0241284668445587,-0.0570378638803958,walking
1761303836551063000,-0.3629510700702667,-0.3108720779418945,0.870643138885498,-0.027640838176012,0.0510057471692562,-0.0478751547634601,walking
1761303836561199900,-0.2767508029937744,-0.5559749603271484,0.9321942329406738,-0.050853032618761,0.0761268362402916,-0.0387124456465244,walking
1761303836571336700,-0.367502361536026,-0.6929121017456055,1.0105297565460205,-0.072232685983181,0.0852895453572273,-0.0381015986204147,walking
1761303836581473500,-0.386288434267044,-0.827000617980957,1.025477170944214,-0.1070509850978851,0.094452254474163,-0.0387124456465244,walking
1761303836591610400,-0.437339037656784,-0.9009561538696288,1.0222946405410769,-0.1449235081672668,0.0968956500291824,-0.0497076958417892,walking
1761303836601747200,-0.4490759074687958,-0.8958501815795898,0.9854378700256348,-0.1718007922172546,0.0926197171211242,-0.0594812519848346,walking
1761303836611884000,-0.454873263835907,-0.8787603378295898,1.0041570663452148,-0.1907370537519455,0.0810136198997497,-0.0710873529314994,walking
1761303836622020900,-0.5223476886749268,-0.8473310470581055,1.0578584671020508,-0.1992889195680618,0.0662769302725792,-0.075363278388977,walking
1761303836632157700,-0.6732735633850098,-0.8326292037963867,1.106050968170166,-0.2060082405805587,0.0473406612873077,-0.075363278388977,walking
1761303836642294500,-0.7670737504959106,-0.7605867385864258,1.099123239517212,-0.2072299271821975,0.0375671051442623,-0.06986565887928,walking
1761303836652431400,-0.6790744662284851,-0.61224365234375,1.0317343473434448,-0.2151709496974945,0.0418430380523204,-0.0704765021800994,walking
1761303836662568200,-0.5482377409934998,-0.4761905670166015,0.9099075794219972,-0.2121167033910751,0.0473406612873077,-0.0710873529314994,walking
1761303836672705000,-0.4591712951660156,-0.3046483993530273,0.8419978618621826,-0.2011214643716812,0.0626118406653404,-0.0619246400892734,walking
1761303836682841900,-0.4376570582389831,-0.176513671875,0.8418857455253601,-0.1931804418563842,0.0785702317953109,-0.0564270168542861,walking
1761303836692978700,-0.4411832988262176,-0.0295667648315429,0.763577938079834,-0.1870719790458679,0.0852895453572273,-0.0448209159076213,walking
1761303836703115500,-0.4716874361038208,0.1790714263916015,0.6772719621658325,-0.173633337020874,0.0840678513050079,-0.037490751594305,walking
1761303836713252400,-0.4281193912029266,0.4301414489746094,0.6827206611633301,-0.1656923145055771,0.0871220901608467,-0.0368799045681953,walking
1761303836723389200,-0.2552935183048248,0.6208868026733398,0.6548002362251282,-0.1650814712047577,0.0846787020564079,-0.0411558337509632,walking
1761303836733526300,-0.1371440589427948,0.8278903961181641,0.4667342901229858,-0.166914016008377,0.1072800531983375,-0.0466534607112407,walking
1761303836743663000,0.014296680688858,0.9984121322631836,0.6352944374084473,-0.1394258886575698,0.1115559786558151,-0.0478751547634601,walking
1761303836753799700,0.0884053707122802,0.9942512512207032,0.5975091457366943,-0.1461452096700668,0.062000997364521,-0.0454317666590213,walking
1761303836763936800,0.0207553505897521,1.0426874160766602,-0.2449462711811065,-0.1473668962717056,0.0198525357991457,-0.0411558337509632,walking
1761303836774073600,0.1108076572418212,0.8876104354858398,0.0605815649032592,-0.0801737010478973,-0.021074229851365,-0.0429883748292923,walking
1761303836804484000,-0.083079032599926,-0.2303199768066406,0.3363227844238281,-0.0465771034359931,-0.0510057471692562,-0.037490751594305,walking
1761303836814621000,-0.1248359084129333,-0.4419698715209961,0.1937705874443054,-0.0569615066051483,-0.0393996499478817,-0.0368799045681953,walking
1761303836824757800,-0.2671864330768585,-0.6531229019165039,0.1072426438331604,-0.0496313385665416,-0.0442864261567592,-0.0332148186862468,walking
1761303836834894600,-0.2501586079597473,-0.7612133026123047,0.0020094513893127,-0.0239757541567087,-0.0540599822998046,-0.0240521114319562,walking
1761303836845031400,-0.2806805372238159,-0.7713394165039062,0.0106317996978759,0.0132859274744987,-0.0729962438344955,-0.0038941511884331,walking
1761303836855168300,-0.3558695912361145,-0.7743654251098633,0.0449082851409912,0.0310004986822605,-0.0907108187675476,0.0125987250357866,walking
1761303836865305000,-0.4565358161926269,-0.6985301971435547,-0.0548514723777771,0.0285571087151765,-0.1035386100411415,0.0297024473547935,walking
1761303836875442000,-0.4757837057113647,-0.5822858810424805,-0.0540306568145751,0.0285571087151765,-0.1175880953669548,0.0290916003286838,walking
1761303836885578800,-0.3276175856590271,-0.4591274261474609,0.0153934359550476,0.0218377895653247,-0.1249182671308517,0.026648212224245,walking
1761303836895715600,-0.3559414148330688,-0.4460315704345703,-0.0125130414962768,0.0053449133411049,-0.1261399537324905,0.0205397382378578,walking
1761303836905852400,-0.4057520031929016,-0.3827028274536133,-0.0229392647743225,-0.0117588099092245,-0.1267508119344711,0.0211505871266126,walking
1761303836915989200,-0.5180607438087463,-0.3193931579589844,-0.0209344029426574,-0.0313059203326702,-0.133470132946968,0.0260373651981353,walking
1761303836926126000,-0.5108817219734192,-0.2035961151123047,-0.0204430818557739,-0.0465771034359931,-0.1353026628494262,0.0278699062764644,walking
1761303836936263000,-0.5087500214576721,-0.1453075408935547,0.0146007537841796,-0.0594048947095871,-0.1359135210514068,0.0303132943809032,walking
1761303836946399700,-0.4827381372451782,-0.1468105316162109,0.0416046380996704,-0.0673459097743034,-0.1340809762477874,0.0303132943809032,walking
1761303836956536600,-0.5116267800331116,-0.1932353973388672,0.0457628369331359,-0.0734543800354003,-0.1230857223272323,0.0321458354592323,walking
1761303836966673400,-0.5289167165756226,-0.1987504959106445,-0.0103833079338073,-0.0875038728117942,-0.1212531775236129,0.0388651564717292,walking
1761303836976810200,-0.5024312138557434,-0.1710414886474609,-0.1099647283554077,-0.1076618283987045,-0.1096470803022384,0.0523037947714328,walking
1761303836986947000,-0.4768771529197693,-0.1812763214111328,-0.1725018620491027,-0.1308740228414535,-0.1017060652375221,0.0578014217317104,walking
1761303836997084000,-0.3953641653060913,-0.163029670715332,-0.2416979670524597,-0.1375933438539505,-0.108425386250019,0.0584122687578201,walking
1761303837007220700,-0.3033961057662964,-0.1403007507324218,-0.2376474142074585,-0.1467560529708862,-0.1096470803022384,0.0578014217317104,walking
1761303837017357600,-0.2881420254707336,-0.2120208740234375,-0.260655790567398,-0.1577513068914413,-0.0955975949764251,0.0571905747056007,walking
1761303837027494700,-0.2730854153633117,-0.3131885528564453,-0.0589522719383239,-0.1510319858789444,-0.1029277667403221,0.0559688806533813,walking
1761303837037631500,-0.3648804724216461,-0.3842964172363281,-0.0358654260635376,-0.1620272397994995,-0.1102579310536384,0.0620773509144783,walking
1761303837047768000,-0.3113749325275421,-0.3482723236083984,-0.2437253594398498,-0.1608055382966995,-0.1181989461183548,0.0596339628100395,walking
1761303837057905200,-0.3062536716461181,-0.3199605941772461,-0.2140790820121765,-0.1510319858789444,-0.1236965730786323,0.0632990449666976,walking
1761303837068042000,-0.2616200447082519,-0.2992210388183594,-0.139396071434021,-0.1430909633636474,-0.1310267299413681,0.0669641271233558,walking
1761303837078178800,-0.3403519093990326,-0.2599782943725586,-0.2212421298027038,-0.142480120062828,-0.1401894390583038,0.0681858286261558,walking
1761303837088315600,-0.274447500705719,-0.167271614074707,-0.2657971382141113,-0.1363716572523117,-0.144465371966362,0.0706292167305946,walking
1761303837098452500,-0.2363227903842926,-0.1467542648315429,-0.3113580346107483,-0.1302631795406341,-0.1450762301683426,0.0785702317953109,walking
1761303837108589300,-0.2727468609809875,-0.1219663619995117,-0.3452214002609253,-0.1149920001626014,-0.1566823273897171,0.0871220901608467,walking
1761303837118726100,-0.2173028886318206,-0.1094551086425781,-0.3441818058490753,-0.1009425073862075,-0.1585148572921753,0.0926197171211242,walking
1761303837128863000,-0.1701336801052093,-0.0925521850585937,-0.3017051815986633,-0.0862821787595748,-0.1572931706905365,0.0956739485263824,walking
1761303837138999800,-0.1546729952096939,-0.0784158706665039,-0.2652603983879089,-0.0685676038265228,-0.1597365587949752,0.0987281873822212,walking
1761303837149136600,-0.1234485059976577,-0.0481538772583007,-0.2278134226799011,-0.0520747303962707,-0.1579040139913559,0.1036149635910987,walking
1761303837159273500,-0.2255719006061554,-0.0255346298217773,-0.2696992754936218,-0.0386360883712768,-0.163401648402214,0.1133885234594345,walking
1761303837169410300,-0.2322950810194015,0.0696392059326171,-0.331230878829956,-0.0300842281430959,-0.163401648402214,0.118275299668312,walking
1761303837179547100,-0.1987040489912033,0.1536951065063476,-0.3314845561981201,-0.0160347409546375,-0.1707318127155304,0.1158319115638732,walking
1761303837189684000,-0.2016615718603134,0.156254768371582,-0.3236967921257019,-0.0062611843459308,-0.1743968874216079,0.1225512325763702,walking
1761303837199820800,-0.2170059382915496,0.2010335922241211,-0.3095643520355224,0.0114533863961696,-0.1841704547405243,0.1286597102880478,walking
1761303837209957600,-0.1452163308858871,0.2213811874389648,-0.3525236845016479,0.0316113457083702,-0.1915006190538406,0.1304922401905059,walking
1761303837220094500,-0.138087511062622,0.2389602661132812,-0.4077871441841125,0.042606595903635,-0.1957765519618988,0.1292705535888672,walking
1761303837230231300,-0.1556214690208435,0.1808004379272461,-0.4459306299686432,0.0633754059672355,-0.2049392610788345,0.1390441060066223,walking
1761303837240368000,-0.1734150797128677,0.1258630752563476,-0.4532728195190429,0.0823116675019264,-0.2183778882026672,0.1439308822154998,walking
1761303837250505000,-0.1887899935245514,0.1141633987426757,-0.4498159885406494,0.0945286154747009,-0.2299840003252029,0.1457634270191192,walking
1761303837260641800,-0.173538789153099,0.0767469406127929,-0.4902940094470978,0.1024696305394172,-0.2428117841482162,0.1475959718227386,walking
1761303837270778600,-0.2205424606800079,0.0587234497070312,-0.5022842288017273,0.1207950487732887,-0.268467366695404,0.1543152928352356,walking
1761303837280915500,-0.2939165234565735,0.0738964080810546,-0.4928954243659973,0.1433963924646377,-0.2953446507453918,0.1659213900566101,walking
1761303837291052300,-0.372512012720108,0.1264352798461914,-0.4385400414466858,0.1702736765146255,-0.3167243003845215,0.1830251067876815,walking
1761303837301189000,-0.3948686718940735,0.2228498458862304,-0.2913933396339416,0.1892099380493164,-0.3148917555809021,0.2001288384199142,walking
1761303837311326200,-0.4429031014442444,0.5272188186645508,-0.0210468173027038,0.1977618038654327,-0.3130592107772827,0.202572226524353,walking
1761303837321463000,-0.698387086391449,1.0737342834472656,0.4069830179214477,0.1953184157609939,-0.2971771955490112,0.1909661293029785,walking
1761303837331600000,-0.675991415977478,1.6255292892456057,0.5582232475280762,0.1360662281513214,-0.2415900975465774,0.1646996885538101,walking
1761303837341736700,-0.3293873071670532,2.071868896484375,0.1855709552764892,0.0792574286460876,-0.1798945218324661,0.1469851285219192,walking
1761303837351873500,0.1076080203056335,2.2919931411743164,0.1653664708137512,0.0584886260330677,-0.1408002972602844,0.1524827480316162,walking
1761303837362010400,0.4218919277191162,2.265257835388184,0.4250280261039734,0.0633754059672355,-0.1163664013147354,0.1671430766582489,walking
1761303837372147200,0.6189088821411133,1.992635726928711,0.657511830329895,0.0615428611636161,-0.0974301397800445,0.1628671437501907,walking
1761303837382284000,0.754850447177887,1.646590232849121,0.8397336602210999,0.0432174429297447,-0.0784938707947731,0.124994620680809,walking
1761303837392420900,0.7563230991363525,1.2870330810546875,0.8464662432670593,0.0120642334222793,-0.0815481096506118,0.0810136198997497,walking
1761303837402557700,0.440534770488739,0.6944217681884766,0.6819814443588257,-0.0294733811169862,-0.1023169159889221,0.0523037947714328,walking
1761303837412694500,0.1404252648353576,-0.0137271881103515,0.5365735292434692,-0.0355818532407283,-0.1310267299413681,0.0449736304581165,walking
1761303837422831400,-0.2494649887084961,-0.631678581237793,0.5191715359687805,-0.027640838176012,-0.1768402755260467,0.0639098957180976,walking
1761303837432968200,-0.4826598763465881,-1.0881061553955078,0.4971072077751159,-0.0050394898280501,-0.2073826491832733,0.0810136198997497,walking
1761303837443105000,-0.6865026950836182,-1.3332195281982422,0.5465326309204102,0.0157293174415826,-0.2208212912082672,0.1030041202902793,walking
1761303837453241900,-0.8251181840896606,-1.3936653137207031,0.4329963326454162,0.0108425384387373,-0.2238755226135254,0.124383769929409,walking
1761303837463378700,-0.8409795761108398,-1.2770986557006836,0.2646002769470215,0.0102316914126276,-0.1945548504590988,0.1439308822154998,walking
1761303837473515500,-0.8682760000228882,-1.1727619171142578,0.5504755973815918,0.0364981219172477,-0.1701209545135498,0.1646996885538101,walking
1761303837483652400,-0.8274274468421936,-1.030308723449707,0.7558072209358215,0.0242811776697635,-0.1963873952627182,0.1750840991735458,walking
1761303837493789200,-0.800368070602417,-0.6231117248535156,-0.0882896780967712,0.0181727055460214,-0.2031067162752151,0.1683647781610489,walking
1761303837503926000,-0.5605347156524658,-0.415384292602539,0.4089806079864502,0.0621537081897258,-0.185392141342163,0.1665322333574295,walking
1761303837514062800,-0.4404399693012237,-0.4828681945800781,0.6460217833518982,0.07437065243721,-0.1951656937599182,0.1634780019521713,walking
1761303837524199700,-0.4656229317188263,-0.4786224365234375,0.5469314455986023,0.0884201377630233,-0.160958245396614,0.1585912257432937,walking
1761303837534336500,-0.360536515712738,-0.4648590087890625,0.8439111113548279,0.0847550556063652,-0.1255291104316711,0.148206815123558,walking
1761303837544473300,-0.1169334650039672,-0.3318586349487304,0.9173190593719482,0.0792574286460876,-0.0986518338322639,0.1231620758771896,walking
1761303837554610200,0.131507933139801,-0.2948551177978515,0.8650089502334595,0.0682621821761131,-0.0638335421681404,0.094452254474163,walking
1761303837564747300,0.3203480839729309,-0.3536815643310547,0.8722413182258606,0.0670404881238937,-0.0412321910262107,0.064520739018917,walking
1761303837574884000,0.4657119512557983,-0.3911199569702148,0.8904575705528259,0.0823116675019264,-0.0314586348831653,0.041308544576168,walking
1761303837585020700,0.4781867265701294,-0.495452880859375,0.859107255935669,0.0884201377630233,-0.0339020229876041,0.0290916003286838,walking
1761303837595157800,0.4458006024360657,-0.5183486938476562,0.7941070795059204,0.0853659063577652,-0.0351237170398235,0.0235939752310514,walking
1761303837605294600,0.4704464673995971,-0.4790182113647461,0.7642742395401001,0.0762031972408294,-0.0473406612873077,0.026648212224245,walking
1761303837615431400,0.5016034841537476,-0.4397144317626953,0.7508558034896851,0.0707055702805519,-0.0687203183770179,0.0315349884331226,walking
1761303837625568300,0.6022039651870728,-0.4076452255249023,0.7747770547866821,0.0609320141375064,-0.0772721767425537,0.0284807533025741,walking
1761303837635705000,0.6493152976036072,-0.4543876647949219,0.8986313343048096,0.0572669319808483,-0.0839914977550506,0.0352000743150711,walking
1761303837645842000,0.6624260544776917,-0.5081272125244141,1.0554146766662598,0.0548235401511192,-0.0894891247153282,0.0394760034978389,walking
1761303837655978800,0.6459224820137024,-0.5449361801147461,1.2166122198104858,0.0548235401511192,-0.0925433561205864,0.0486387126147747,walking
1761303837666115600,0.617117166519165,-0.6031227111816406,1.27509868144989,0.057877779006958,-0.1010952219367027,0.0523037947714328,walking
1761303837676252400,0.628536581993103,-0.6348514556884766,1.2808871269226074,0.0572669319808483,-0.1059819981455802,0.056579727679491,walking
1761303837686389200,0.6660101413726807,-0.6330251693725586,1.1811805963516235,0.0529909990727901,-0.1078145429491996,0.0584122687578201,walking
1761303837696526000,0.6812789440155029,-0.6096639633178711,1.0867769718170166,0.0554343871772289,-0.1108687743544578,0.064520739018917,walking
1761303837706663000,0.6507343649864197,-0.5528221130371094,0.9841396808624268,0.042606595903635,-0.1065928488969802,0.0687966719269752,walking
1761303837716799700,0.6989092826843262,-0.398141860961914,0.9309190511703492,0.0328330397605896,-0.1035386100411415,0.0706292167305946,walking
1761303837726936600,0.7016410827636719,-0.2079391479492187,0.8425432443618774,0.013896775431931,-0.1059819981455802,0.0700183659791946,walking
1761303837737073400,0.7238577604293823,-0.0492830276489257,0.7353079319000244,0.0132859274744987,-0.1145338639616966,0.0657424330711364,walking
1761303837747210200,0.6532346606254578,0.0278816223144531,0.6303589344024658,-0.0135913519188761,-0.1041494607925415,0.0626882016658783,walking
1761303837757347000,0.5880569815635681,0.1048173904418945,0.5495455265045166,-0.0135913519188761,-0.1023169159889221,0.0578014217317104,walking
1761303837767484000,0.568608283996582,0.0956106185913086,0.6520751714706421,-0.0209215190261602,-0.0998735278844833,0.0559688806533813,walking
1761303837777620700,0.4257413744926452,0.1269807815551757,0.5127531290054321,-0.0251974500715732,-0.1023169159889221,0.0486387126147747,walking
1761303837787757600,0.3821889162063598,0.1247997283935546,0.4395303726196289,-0.036192700266838,-0.0992626771330833,0.0382543094456195,walking
1761303837797894400,0.2511742711067199,0.086771011352539,0.3418184518814087,-0.0441337153315544,-0.0986518338322639,0.0303132943809032,walking
1761303837808031200,0.1638336181640625,0.0010404586791992,0.3160591423511505,-0.0435228683054447,-0.0986518338322639,0.026648212224245,walking
1761303837818168000,0.0318624973297119,-0.0965032577514648,0.2720871269702911,-0.0355818532407283,-0.1023169159889221,0.0211505871266126,walking
1761303837828305000,-0.0377727150917053,-0.1794681549072265,0.2402087450027465,-0.0355818532407283,-0.1065928488969802,0.0217614341527223,walking
1761303837838442000,-0.1046632528305053,-0.2694034576416015,0.155862271785736,-0.0368035472929477,-0.1181989461183548,0.0193180441856384,walking
1761303837848578800,-0.0874015688896179,-0.3854217529296875,0.162524402141571,-0.0355818532407283,-0.1102579310536384,0.0156529601663351,walking
1761303837858715600,-0.0959546566009521,-0.5274019241333008,0.165479302406311,-0.0484096445143222,-0.1072036921977996,0.0107661830261349,walking
1761303837868852500,-0.0925043821334838,-0.6713590621948242,0.1840263605117797,-0.0587940476834774,-0.0980409830808639,0.0107661830261349,walking
1761303837878989300,-0.0383821725845336,-0.7624149322509766,0.2230189442634582,-0.0679567605257034,-0.0882674306631088,0.0058794049546122,walking
1761303837889126100,0.0713011622428894,-0.7553443908691406,0.2513169646263122,-0.0765086188912391,-0.0674986243247985,-0.0008399150101467,walking
1761303837899263000,0.1363628506660461,-0.6862258911132812,0.247236967086792,-0.0881147161126136,-0.0558925233781337,-0.0106134712696075,walking
1761303837909399800,0.1474023461341858,-0.5885801315307617,0.2359068393707275,-0.1113269105553627,-0.0369562581181526,-0.0203870274126529,walking
1761303837919536600,0.1546239256858825,-0.4791736602783203,0.1598890423774719,-0.1363716572523117,-0.0222959257662296,-0.0295497365295887,walking
1761303837929673500,0.1909589171409607,-0.3914127349853515,0.1508229970932006,-0.1595838516950607,-0.0021379655227065,-0.0332148186862468,walking
1761303837939810300,0.2680317759513855,-0.3300361633300781,0.1568048000335693,-0.1748550236225128,0.016798298805952,-0.0344365127384662,walking
1761303837949947100,0.273013710975647,-0.3403291702270508,0.1425336599349975,-0.1846285909414291,0.0345128700137138,-0.030771430581808,walking
1761303837960084000,0.2799228429794311,-0.3695783615112304,0.1515009999275207,-0.1901262104511261,0.0491732060909271,-0.0252738054841756,walking
1761303837970220800,0.2114865779876709,-0.4070901870727539,0.1012300848960876,-0.1925695985555648,0.071240060031414,-0.0173327904194593,walking
1761303837980357600,0.1668277978897094,-0.4249544143676758,0.0791503190994262,-0.2005106061697006,0.0859003961086273,-0.0069483877159655,walking
1761303837990494500,0.1768605709075927,-0.4165668487548828,0.0504984855651855,-0.1974563747644424,0.1066692024469375,-0.0032833039294928,walking
1761303838000631300,0.1817719936370849,-0.377655029296875,0.0153767466545104,-0.1944021433591842,0.1280488520860672,0.0009926267666742,walking
1761303838010768100,0.1912890672683715,-0.3040380477905273,-0.0308499932289123,-0.1919587552547454,0.1463742703199386,0.0028251686599105,walking
1761303838020905000,0.1861171722412109,-0.2576236724853515,-0.0530516505241394,-0.1687465608119964,0.1683647781610489,0.0089336410164833,walking
1761303838031041800,0.0808756947517395,-0.2024784088134765,-0.0693075060844421,-0.1583621501922607,0.1842468082904815,0.0235939752310514,walking
1761303838041178600,0.1384395956993103,-0.0824775695800781,-0.1502014398574829,-0.1467560529708862,0.1976854503154754,0.0150421140715479,walking
1761303838051315500,0.2126752734184265,0.0494451522827148,-0.1388787031173706,-0.1308740228414535,0.2123457789421081,0.0046577104367315,walking
1761303838061452300,0.2067148089408874,0.066019058227539,-0.0798985958099365,-0.1217113137245178,0.225784420967102,-0.0051158457063138,walking
1761303838071589000,0.1997459530830383,0.0798158645629882,-0.0966863632202148,-0.1149920001626014,0.2367796748876571,-0.0167219433933496,walking
1761303838081726000,0.2128258943557739,0.0532283782958984,-0.1244475841522216,-0.1082726791501045,0.2514399886131286,-0.026495499536395,walking
1761303838091863000,0.2030450701713562,-0.0060558319091796,-0.1222298741340637,-0.0948340371251106,0.2563267946243286,-0.0350473597645759,walking
1761303838101999900,0.2128369212150573,-0.0785779953002929,-0.0958127379417419,-0.0868930220603942,0.2654894888401031,-0.0399341396987438,walking
1761303838112136700,0.2369500994682312,-0.1970939636230468,-0.1205385327339172,-0.0746760740876197,0.2770955860614776,-0.0423775278031826,walking
1761303838122273500,0.2460010647773742,-0.2853927612304687,-0.0875585079193115,-0.065513364970684,0.2887016832828522,-0.0356582105159759,walking
1761303838132410400,0.2197402119636535,-0.3958692550659179,-0.1128656268119812,-0.0532964244484901,0.2972535490989685,-0.0362690575420856,walking
1761303838142547200,0.2362614870071411,-0.490518569946289,-0.1408063769340515,-0.0355818532407283,0.3058054149150848,-0.0350473597645759,walking
1761303838152684000,0.2529178261756897,-0.5131416320800781,-0.1760783791542053,-0.0184781290590763,0.3113030195236206,-0.0387124456465244,walking
1761303838162820900,0.2347157001495361,-0.4531984329223633,-0.2139431834220886,-0.0025961007922887,0.3137464225292206,-0.046042613685131,walking
1761303838172957700,0.2052016854286193,-0.3801908493041992,-0.262387216091156,0.0029015245381742,0.3119138777256012,-0.0478751547634601,walking
1761303838183094500,0.1193130612373352,-0.3013925552368164,-0.3207790851593017,0.013896775431931,0.3186331987380981,-0.0435992218554019,walking
1761303838193231400,0.1762649416923523,-0.1603889465332031,-0.3448630571365356,0.0175618585199117,0.3180223405361175,-0.0454317666590213,walking
1761303838203368200,0.1714590191841125,-0.0619773864746093,-0.3664677739143371,0.0389415137469768,0.3186331987380981,-0.0497076958417892,walking
1761303838213505000,0.2055662870407104,0.039280891418457,-0.3486805856227875,0.0536018460988998,0.3265742063522339,-0.0613137930631637,walking
1761303838223641900,0.1976284980773925,0.1010646820068359,-0.347161054611206,0.059710320085287,0.3381803035736084,-0.06986565887928,walking
1761303838233778700,0.2309105396270752,0.1451663970947265,-0.361164778470993,0.0731489583849906,0.3772745430469513,-0.0778066664934158,walking
1761303838243915500,0.1637801527976989,0.0494260787963867,0.0548608303070068,0.111632339656353,0.385215550661087,-0.0674222633242607,walking
1761303838254052400,0.0941005945205688,-0.0209236145019531,-0.1708223223686218,0.0914743766188621,0.3357369303703308,-0.0582595579326152,walking
1761303838264189200,0.1442813873291015,0.1615505218505859,-0.98391592502594,0.1122431829571724,0.3302392959594726,-0.0692548081278801,walking
1761303838274326000,0.3529736399650574,0.0886669158935546,-0.2492032647132873,0.1757712960243225,0.3076379597187042,-0.0643680319190025,walking
1761303838284462800,0.2393830418586731,-0.1737537384033203,-0.3319017291069031,0.1977618038654327,0.2868691384792328,-0.0564270168542861,walking
1761303838294599700,0.125184416770935,-0.1399917602539062,-0.3450912833213806,0.2209739983081817,0.2923667728900909,-0.0552053228020668,walking
1761303838304736500,0.1615903377532959,-0.0408802032470703,-0.1952345371246338,0.2246390730142593,0.2905342280864715,-0.0600920990109443,walking
1761303838314873300,0.208607792854309,0.1342306137084961,-0.2819631695747375,0.2142546772956848,0.2948101460933685,-0.0790283605456352,walking
1761303838325010200,0.3370508551597595,0.2921838760375976,-0.3345559239387512,0.2124221324920654,0.3094705045223236,-0.1010188683867454,walking
1761303838335147300,0.441555917263031,0.3672285079956054,-0.4052882790565491,0.2356343269348144,0.3241308331489563,-0.1187334358692169,walking
1761303838345284000,0.4849108457565307,0.313694953918457,-0.2366593778133392,0.2887780368328094,0.3351260721683502,-0.1132358089089393,walking
1761303838355420700,0.2683714032173157,0.1787538528442382,-0.1897567808628082,0.3248180150985718,0.3400128483772278,-0.0875802263617515,walking
1761303838365557800,0.1613515615463256,0.1286296844482422,-0.2825143039226532,0.3486410677433014,0.3375694751739502,-0.0643680319190025,walking
1761303838375694600,0.1322718858718872,0.1453533172607422,-0.3824528157711029,0.3779617547988891,0.3180223405361175,-0.0509293898940086,walking
1761303838385831400,0.1387832164764404,0.1782960891723632,-0.3550702929496765,0.4085040986537933,0.2893125414848327,-0.0515402369201183,walking
1761303838395968300,0.0521374940872192,0.4106950759887695,0.0459567904472351,0.4518742561340332,0.2606027126312256,-0.0655897259712219,walking
1761303838406105000,-0.2383511662483215,0.7380132675170898,0.7073283195495605,0.4848600029945373,0.2508291602134704,-0.0863585323095321,walking
1761303838416242000,-0.2317376136779785,1.238856315612793,0.7118844389915466,0.4524851143360138,0.2563267946243286,-0.1144575029611587,walking
1761303838426378800,0.0341910123825073,1.9551324844360352,0.0132006704807281,0.3846810758113861,0.2337254285812378,-0.1443890184164047,walking
1761303838436515600,0.2796468734741211,2.62423038482666,-0.3745735883712768,0.3345915973186493,0.1897444278001785,-0.1743205338716507,walking
1761303838446652400,0.4606230854988098,2.935495376586914,-0.0485143512487411,0.3254288733005523,0.1665322333574295,-0.188370019197464,walking
1761303838456789200,0.4681048989295959,2.670659065246582,0.5442685484886169,0.3248180150985718,0.1567586809396743,-0.1779856234788894,walking
1761303838466926000,0.3726044297218323,2.127422332763672,0.99500572681427,0.3040492236614227,0.1598129123449325,-0.151719182729721,walking
1761303838477063000,0.192625880241394,1.4760971069335938,1.18707013130188,0.2600682079792022,0.1640888452529907,-0.1169008910655975,walking
1761303838487199700,0.1220489740371704,0.7885684967041016,1.1209819316864014,0.1904316395521164,0.1567586809396743,-0.0845259875059127,walking
1761303838497336600,0.2138800621032714,0.0170650482177734,0.9053531885147096,0.1256818175315857,0.1457634270191192,-0.0594812519848346,walking
1761303838507473400,0.3244827389717102,-0.7905035018920898,0.6725800633430481,0.0908635333180427,0.124994620680809,-0.0350473597645759,walking
1761303838517610200,0.3412313461303711,-1.5719499588012695,0.5954708456993103,0.0658187940716743,0.1274380087852478,-0.0069483877159655,walking
1761303838527747000,0.3451344966888428,-2.1410694122314453,0.5090137720108032,0.0664296373724937,0.1341573297977447,0.0254265163093805,walking
1761303838537884000,0.3014253377914428,-2.4720325469970703,0.6643992066383362,0.0700947195291519,0.1237729266285896,0.071240060031414,walking
1761303838548020700,0.1795050501823425,-2.436628818511963,0.4996809065341949,0.0493259169161319,0.1231620758771896,0.0901763290166854,walking
1761303838558157600,0.3592691421508789,-2.1051955223083496,0.4578790664672851,0.0316113457083702,0.1066692024469375,0.0852895453572273,walking
1761303838568294400,0.4324705600738525,-1.7770442962646484,0.4617896378040313,0.0102316914126276,0.1066692024469375,0.071850910782814,walking
1761303838578431200,0.4260672330856323,-1.5095157623291016,0.4111062288284302,-0.0105371149256825,0.1005607321858406,0.0541363395750522,walking
1761303838588568000,0.3616825938224792,-1.3000812530517578,0.4482576847076416,-0.0178672820329666,0.0883437842130661,0.0370326153934001,walking
1761303838598705000,0.1611968874931335,-1.0889434814453125,0.4616776406764984,-0.0166455879807472,0.071240060031414,0.0144312661141157,walking
1761303838608842000,0.0861044526100158,-0.7901954650878906,0.4465515613555908,-0.0166455879807472,0.0510057471692562,-0.0167219433933496,walking
1761303838618978800,-0.0195753574371337,-0.5425443649291992,0.5278626084327698,-0.0099262678995728,0.0229067727923393,-0.0435992218554019,walking
1761303838629115600,-0.1632764339447021,-0.3530082702636719,0.6370129585266113,0.0071774553507566,0.0143549107015132,-0.0668114200234413,walking
1761303838639252500,-0.309195876121521,-0.1521644592285156,0.83266681432724,0.0151184694841504,0.0131332157179713,-0.0888019204139709,walking
1761303838649389300,-0.3497916162014007,0.0432519912719726,0.963670015335083,0.0187835525721311,0.0204633828252553,-0.1114032715559005,walking
1761303838659526100,-0.4526735544204712,0.168797492980957,1.0368415117263794,0.0175618585199117,0.0308477859944105,-0.1321720778942108,walking
1761303838669663000,-0.6325573921203613,0.157841682434082,1.075200438499451,0.0065666078589856,0.0461189672350883,-0.1474432498216629,walking
1761303838679799800,-0.7093989253044128,-0.0106678009033203,1.1775225400924685,0.0035123717971146,0.0650552362203598,-0.1462215632200241,walking
1761303838689936600,-0.7703924179077148,-0.2574520111083984,1.2230864763259888,-0.0105371149256825,0.0938414111733436,-0.135226309299469,walking
1761303838700073500,-0.8178542852401733,-0.439030647277832,1.156265377998352,-0.0337493121623992,0.1115559786558151,-0.1254527568817138,walking
1761303838710210300,-0.7847698926925659,-0.6606483459472656,1.151523232460022,-0.0587940476834774,0.124383769929409,-0.1175117418169975,walking
1761303838720347100,-0.7885929942131042,-0.8314428329467773,1.1897077560424805,-0.0826170891523361,0.1402658075094223,-0.1071273386478424,walking
1761303838750757600,-0.8274419903755188,-0.7280263900756836,1.187847375869751,-0.1516428291797638,0.1194969937205314,-0.1187334358692169,walking
1761303838760894500,-0.818513035774231,-0.4853553771972656,1.042609691619873,-0.1760767251253128,0.0901763290166854,-0.1382805556058883,walking
1761303838771031300,-0.6810472011566162,-0.1334524154663086,0.987375795841217,-0.1882936656475067,0.071240060031414,-0.158438503742218,walking
1761303838781168000,-0.4831144213676452,0.0934209823608398,0.9580277800559998,-0.1937913000583648,0.0681858286261558,-0.1694337576627731,walking
1761303838791305000,-0.3740692138671875,0.3246021270751953,0.9017425179481506,-0.2011214643716812,0.0724617540836334,-0.1688229143619537,walking
1761303838801441800,-0.301804780960083,0.5266647338867188,0.7928453683853149,-0.2029540091753006,0.0816244632005691,-0.1614927500486374,walking
1761303838811578600,-0.2789005935192108,0.6996946334838867,0.7369764447212219,-0.2005106061697006,0.0901763290166854,-0.1468324065208435,walking
1761303838821715500,-0.3421644270420074,0.7888946533203125,0.6666021347045898,-0.20356485247612,0.095063105225563,-0.1211768239736557,walking
1761303838831852300,-0.3231820464134216,0.7514896392822266,0.5494996309280396,-0.1950129866600036,0.0962847992777824,-0.082082599401474,walking
1761303838841989000,-0.2149869501590728,0.6689910888671875,0.4141248762607574,-0.1895153671503067,0.0999498814344406,-0.0429883748292923,walking
1761303838852126000,-0.0816498696804046,0.5844707489013672,0.2745851576328277,-0.1864611208438873,0.1085017472505569,-0.0100026242434978,walking
1761303838862263000,0.1767354011535644,0.5264520645141602,0.2013280391693115,-0.1718007922172546,0.1115559786558151,0.0022143214009702,walking
1761303838872400000,0.3892625272274017,0.4184465408325195,0.1355836987495422,-0.1699682474136352,0.1158319115638732,0.0009926267666742,walking
1761303838882536400,0.4805482625961303,0.2175397872924804,0.0704629719257354,-0.1656923145055771,0.1078908964991569,-0.0100026242434978,walking
1761303838892673500,0.4315033555030823,-0.0641489028930664,0.0765371918678283,-0.1485885977745056,0.0920088663697242,-0.0185544863343238,walking
1761303838902810400,0.3025170564651489,-0.2879047393798828,0.0957844853401184,-0.1369825005531311,0.071240060031414,-0.030771430581808,walking
1761303838912947200,0.1751368641853332,-0.4515619277954101,0.1056399941444397,-0.112548604607582,0.0339020229876041,-0.0454317666590213,walking
1761303838923084000,0.0796123445034027,-0.5719280242919922,0.1507555842399597,-0.0954448878765106,-0.0009162708884105,-0.052151083946228,walking
1761303838933220900,-0.3507658243179321,-0.627471923828125,0.0476788878440856,-0.09666658192873,-0.027793550863862,-0.046042613685131,walking
1761303838943357700,-0.2326961755752563,-0.7282848358154297,0.1173111796379089,-0.0923906490206718,-0.0485623553395271,-0.052151083946228,walking
1761303838953494500,-0.318395584821701,-0.671229362487793,0.1347336769104004,-0.0881147161126136,-0.0687203183770179,-0.0484860017895698,walking
1761303838963631400,-0.2925466299057007,-0.5593166351318359,0.0871118307113647,-0.0936123430728912,-0.0766613334417343,-0.0399341396987438,walking
1761303838973768200,-0.3275830149650574,-0.4857997894287109,0.053210437297821,-0.1009425073862075,-0.0784938707947731,-0.028938889503479,walking
1761303838983905000,-0.3691337704658508,-0.3455619812011719,0.0233387947082519,-0.1094943732023239,-0.08521319180727,-0.0350473597645759,walking
1761303838994041900,-0.3451616168022156,-0.2080144882202148,-0.0171201229095459,-0.1211004704236984,-0.0998735278844833,-0.0454317666590213,walking
1761303839004178700,-0.3617720603942871,-0.256937026977539,0.0143720507621765,-0.1430909633636474,-0.1053711548447609,-0.0466534607112407,walking
1761303839014315500,-0.386275976896286,-0.3152647018432617,0.105857253074646,-0.1388150453567505,-0.0894891247153282,-0.0381015986204147,walking
1761303839024452400,-0.3884081244468689,-0.3709707260131836,0.5145427584648132,-0.1418692767620086,-0.1230857223272323,-0.0246629584580659,walking
1761303839034589200,-0.4673619866371155,-0.2995510101318359,-0.130667507648468,-0.1882936656475067,-0.1646233350038528,0.0003817795368377,walking
1761303839044726000,-0.554678738117218,-0.1662759780883789,-0.5215115547180176,-0.1687465608119964,-0.1774511337280273,0.0132095720618963,walking
1761303839054862800,-0.387869119644165,-0.2364358901977539,0.1565079092979431,-0.142480120062828,-0.223264679312706,0.0260373651981353,walking
1761303839064999700,-0.4394198060035705,-0.3708448410034179,0.0255309343338012,-0.1443126648664474,-0.238535851240158,0.030924143269658,walking
1761303839075136500,-0.4599599242210388,-0.4021158218383789,0.0584280490875244,-0.1565296053886413,-0.2312056869268417,0.032756682485342,walking
1761303839085273300,-0.4034821987152099,-0.3590497970581054,0.0906391739845275,-0.1864611208438873,-0.2263189107179641,0.0272590592503547,walking
1761303839095410200,-0.3966459929943084,-0.2831554412841797,0.003672182559967,-0.2066190838813781,-0.2183778882026672,0.0303132943809032,walking
1761303839105547000,-0.3894615173339844,-0.27203369140625,-0.0187007188796997,-0.2102841734886169,-0.1994416266679763,0.026648212224245,walking
1761303839115684000,-0.2057473808526992,-0.2776355743408203,0.0381677746772766,-0.1980672180652618,-0.1915006190538406,0.0260373651981353,walking
1761303839125820700,-0.2020030319690704,-0.3067512512207031,0.0578446388244628,-0.1840177327394485,-0.2000524699687957,0.0284807533025741,walking
1761303839135957500,-0.2392149865627288,-0.3377790451049804,-0.043925404548645,-0.1711899489164352,-0.2073826491832733,0.0364217683672905,walking
1761303839146094600,-0.3307630717754364,-0.3211698532104492,-0.1413972973823547,-0.1693574041128158,-0.222042977809906,0.0431410893797874,walking
1761303839156231400,-0.2532916665077209,-0.2838096618652344,-0.1481759548187255,-0.150421142578125,-0.2489202618598938,0.0370326153934001,walking
1761303839166368300,-0.170045405626297,-0.2989177703857422,-0.1069545745849609,-0.142480120062828,-0.2525853514671325,0.0364217683672905,walking
1761303839176505000,-0.1026889383792877,-0.3255805969238281,-0.1151022315025329,-0.1351499557495117,-0.2586938142776489,0.0394760034978389,walking
1761303839186642000,-0.1398995220661163,-0.2718648910522461,-0.1100023984909057,-0.1217113137245178,-0.2605263590812683,0.0376434624195098,walking
1761303839196778800,-0.1415174901485443,-0.2214536666870117,-0.1017470359802246,-0.113159455358982,-0.2696890532970428,0.0400868505239486,walking
1761303839206915600,-0.1774268448352813,-0.1412496566772461,-0.1144298315048217,-0.1094943732023239,-0.2727433145046234,0.0535254925489425,walking
1761303839217052400,-0.1898764073848724,-0.069493293762207,-0.1518571972846985,-0.1003316640853881,-0.2800734639167785,0.0596339628100395,walking
1761303839227189200,-0.1537887752056121,0.0032672882080078,-0.1558231115341186,-0.0777303129434585,-0.2825168669223785,0.0706292167305946,walking
1761303839237326000,-0.2379493415355682,-0.0194625854492187,-0.1246455311775207,-0.0563506595790386,-0.2849602401256561,0.0901763290166854,walking
1761303839247463000,-0.2630802094936371,0.0145597457885742,-0.0872739553451538,-0.036192700266838,-0.2886253297328949,0.1023932695388794,walking
1761303839257599700,-0.2789076864719391,0.0479011535644531,-0.0818842649459838,-0.0203106720000505,-0.2947337925434112,0.1072800531983375,walking
1761303839267736600,-0.2642333805561065,0.0193815231323242,-0.0893990397453308,-0.0074828788638114,-0.3026748299598694,0.1103342846035957,walking
1761303839277873400,-0.2057958841323852,-0.0087270736694335,-0.1991798281669616,0.0035123717971146,-0.324054479598999,0.1158319115638732,walking
1761303839288010200,-0.2073724269866943,-0.0247430801391601,-0.2087421417236328,0.0224486365914344,-0.3203893899917602,0.118275299668312,walking
1761303839298147000,-0.2664920389652252,-0.0734491348266601,-0.3257055282592773,0.0297788046300411,-0.3161134421825409,0.1298813968896865,walking
1761303839308284000,-0.2501870393753052,-0.1285409927368164,-0.2054529190063476,0.0517693050205707,-0.3203893899917602,0.1390441060066223,walking
1761303839318420700,-0.2964075803756714,-0.0721025466918945,-0.2106804251670837,0.0645971000194549,-0.321611076593399,0.1500393599271774,walking
1761303839328557600,-0.2930824160575866,0.0374765396118164,-0.3225900530815124,0.0798682793974876,-0.3203893899917602,0.1573695242404937,walking
1761303839338694400,-0.2267646789550781,0.0486412048339843,-0.3134099841117859,0.0951394587755203,-0.3167243003845215,0.1634780019521713,walking
1761303839348831200,-0.2182309329509735,0.0264883041381835,-0.3063438534736633,0.1232384368777275,-0.3087832927703857,0.1665322333574295,walking
1761303839358968000,-0.2379500269889831,0.0516901016235351,-0.3282374441623688,0.1409530043601989,-0.3063398897647857,0.1659213900566101,walking
1761303839369105000,-0.247827798128128,0.1258668899536132,-0.4261960387229919,0.1531699448823928,-0.3100049793720245,0.1653105467557907,walking
1761303839379241700,-0.2972391247749328,0.1799840927124023,-0.4820006191730499,0.157445877790451,-0.3161134421825409,0.1622563004493713,walking
1761303839389378800,-0.288906067609787,0.1978931427001953,-0.4939650893211365,0.1623326539993286,-0.3179459869861603,0.1585912257432937,walking
1761303839399515600,-0.2866179645061493,0.2154083251953125,-0.4502384960651397,0.1751604527235031,-0.3258870244026184,0.1469851285219192,walking
1761303839409652500,-0.2306965887546539,0.2206411361694336,-0.3787993192672729,0.2008160352706909,-0.3252761662006378,0.1286597102880478,walking
1761303839419789300,-0.20542973279953,0.2562665939331054,-0.3274461328983307,0.2234173864126205,-0.3319954872131347,0.1201078444719314,walking
1761303839429926100,-0.3740159273147583,0.1970500946044922,-0.2479529082775116,0.2545706033706665,-0.3332171738147735,0.124994620680809,walking
1761303839440063000,-0.5637670755386353,0.2588310241699219,0.009865403175354,0.2857238054275512,-0.3332171738147735,0.1304922401905059,walking
1761303839450199800,-0.7489745616912842,0.6020336151123047,0.3822383284568786,0.2967190444469452,-0.3387148082256317,0.1170536056160926,walking
1761303839460336600,-0.9182696342468262,1.113739013671875,0.6254638433456421,0.2698417901992798,-0.2953446507453918,0.0852895453572273,walking
1761303839470473500,-0.551313579082489,1.4005708694458008,0.1905032992362976,0.2179197669029235,-0.2189887464046478,0.0755159929394722,walking
1761303839480610300,-0.0598746538162231,1.548600196838379,-0.0967506170272827,0.2124221324920654,-0.1701209545135498,0.0907871723175048,walking
1761303839490747100,0.1596739888191223,1.6236572265625,0.1431678533554077,0.2356343269348144,-0.1298050433397293,0.1170536056160926,walking
1761303839500884000,0.1569545269012451,1.6176033020019531,0.6197397708892822,0.2423536479473114,-0.0949867516756057,0.1390441060066223,walking
1761303839511020800,0.1334691047668457,1.517656326293945,0.8355704545974731,0.2112004458904266,-0.0583359114825725,0.1366007179021835,walking
1761303839521157600,0.1436262726783752,1.3658761978149414,0.8037833571434021,0.1525591015815735,-0.040621344000101,0.1072800531983375,walking
1761303839531294500,0.1527109742164611,1.0449323654174805,0.6945984363555908,0.0951394587755203,-0.0339020229876041,0.0706292167305946,walking
1761303839541431300,0.1935965418815612,0.5599613189697266,0.620023250579834,0.0560452342033386,-0.0436755791306495,0.0388651564717292,walking
1761303839551568100,0.0569159984588623,-0.114959716796875,0.6507343053817749,0.0548235401511192,-0.0638335421681404,0.0217614341527223,walking
1761303839561705000,-0.1286420822143554,-0.6688776016235352,0.7441641092300415,0.059710320085287,-0.0931542068719863,0.0113770300522446,walking
1761303839571841800,-0.3084132671356201,-1.0208215713500977,0.7555556297302246,0.0523801520466804,-0.1114796251058578,0.0052685574628412,walking
1761303839581978600,-0.4980973303318023,-1.2332420349121094,0.6647754907608032,0.0328330397605896,-0.1298050433397293,0.0125987250357866,walking
1761303839592115500,-0.5574173331260681,-1.3590068817138672,0.5156884789466858,0.0200052484869956,-0.1401894390583038,0.026648212224245,walking
1761303839602252300,-0.53019779920578,-1.3911409378051758,0.4162035286426544,0.0108425384387373,-0.1401894390583038,0.0461953245103359,walking
1761303839612389000,-0.5533472895622253,-1.3943748474121094,0.3987553417682647,0.0163401644676923,-0.144465371966362,0.071240060031414,walking
1761303839622526000,-0.4991995096206665,-1.2924222946166992,0.4844927787780761,0.021226942539215,-0.137746050953865,0.0871220901608467,walking
1761303839632663000,-0.5347856283187866,-1.1738862991333008,0.5265196561813354,0.016951011493802,-0.1255291104316711,0.0999498814344406,walking
1761303839642799900,-0.5851430892944336,-1.0293207168579102,0.5468048453330994,0.0157293174415826,-0.1212531775236129,0.1054475083947181,walking
1761303839652936400,-0.5276467204093933,-0.8206367492675781,0.5572288036346436,0.0132859274744987,-0.1181989461183548,0.1030041202902793,walking
1761303839663073500,-0.3575098514556885,-0.6507244110107422,0.6371055841445923,0.0151184694841504,-0.1218640282750129,0.0975064933300018,walking
1761303839673210400,-0.24246346950531,-0.6078395843505859,0.7053823471069336,0.0206160955131053,-0.1188097894191742,0.095063105225563,walking
1761303839683347200,-0.1729896068572998,-0.6295652389526367,0.8100716471672058,0.0285571087151765,-0.1127013191580772,0.094452254474163,walking
1761303839693484000,-0.0080117583274841,-0.6751165390014648,0.8714081048965454,0.0279462616890668,-0.1059819981455802,0.0932305604219436,walking
1761303839703620900,0.1571309566497802,-0.6871242523193359,0.8816072940826416,0.0200052484869956,-0.1004843711853027,0.0877329409122467,walking
1761303839713757700,0.4810724258422851,-0.6848268508911133,0.8685134649276733,0.0035123717971146,-0.08521319180727,0.0724617540836334,walking
1761303839723894500,0.6630402207374573,-0.7256088256835938,0.9082839488983154,-0.0166455879807472,-0.0760504826903343,0.0516929477453231,walking
1761303839734031400,0.7089905738830566,-0.8594026565551758,0.9319541454315186,-0.0331384651362896,-0.0736070945858955,0.0461953245103359,walking
1761303839744168200,0.6258597373962402,-1.0858945846557615,0.9292455315589904,-0.057572353631258,-0.0748287886381149,0.0461953245103359,walking
1761303839754305000,0.6315916776657104,-1.259258270263672,0.9589567184448242,-0.0679567605257034,-0.0766613334417343,0.0431410893797874,walking
1761303839764441900,0.6973032355308533,-1.3700790405273438,1.0474660396575928,-0.0765086188912391,-0.0791047215461731,0.0400868505239486,walking
1761303839774578700,0.6863681077957153,-1.4375667572021484,1.0771498680114746,-0.089336410164833,-0.0778830274939537,0.0406976975500583,walking
1761303839804989200,0.5123781561851501,-1.1593732833862305,1.4100043773651123,-0.0856713280081749,-0.1029277667403221,0.0523037947714328,walking
1761303839815126000,0.5331798791885376,-0.5992546081542969,0.6834673881530762,-0.0984991192817688,-0.1017060652375221,0.0370326153934001,walking
1761303839825262800,0.7626814842224121,-0.1935224533081054,1.108917474746704,-0.0856713280081749,-0.1236965730786323,0.0260373651981353,walking
1761303839835399700,0.8051342964172363,0.1849699020385742,0.859507143497467,-0.089336410164833,-0.1249182671308517,0.0278699062764644,walking
1761303839845536500,0.7901137471199036,0.543492317199707,0.8554164171218872,-0.0984991192817688,-0.0839914977550506,0.0303132943809032,walking
1761303839855673300,0.8655593395233154,0.9180002212524414,0.8345661163330078,-0.1186570823192596,-0.0369562581181526,0.0358109213411808,walking
1761303839865810200,0.7760886549949646,1.2391729354858398,0.646657407283783,-0.1388150453567505,-0.0027488125488162,0.0370326153934001,walking
1761303839875947300,0.7042779922485352,1.4760332107543943,0.5311251878738403,-0.1571404635906219,0.0284043978899717,0.0315349884331226,walking
1761303839886084000,0.599088191986084,1.5329713821411133,0.473918080329895,-0.1479777544736862,0.0491732060909271,0.0101553360000252,walking
1761303839896221000,0.5296029448509216,1.4366350173950195,0.6603336930274963,-0.1235438585281372,0.0669641271233558,-0.0087809292599558,walking
1761303839906357800,0.1606276035308838,1.0633573532104492,0.6420257091522217,-0.1113269105553627,0.0779593810439109,-0.0203870274126529,walking
1761303839916494600,-0.1465011835098266,0.6359920501708984,0.4995422959327698,-0.1119377613067627,0.0755159929394722,-0.0326039716601371,walking
1761303839926631400,-0.3516622185707092,0.2740840911865234,0.314843475818634,-0.1082726791501045,0.0706292167305946,-0.0417666807770729,walking
1761303839936768300,-0.507789134979248,-0.0870542526245117,0.2561455368995666,-0.0954448878765106,0.0632226914167404,-0.0497076958417892,walking
1761303839946905000,-0.6541129350662231,-0.4592761993408203,0.2297191023826599,-0.0850604772567749,0.0595576092600822,-0.0484860017895698,walking
1761303839957042000,-0.8385424017906189,-0.8114967346191406,0.2450709342956543,-0.0734543800354003,0.0656660795211792,-0.0454317666590213,walking
1761303839967178800,-0.7695059180259705,-1.0195980072021484,0.3521818518638611,-0.0624591335654258,0.0724617540836334,-0.0435992218554019,walking
1761303839977315600,-0.6479114294052124,-1.062419891357422,0.3994874358177185,-0.0600157417356967,0.0822353139519691,-0.0448209159076213,walking
1761303839987452400,-0.5265618562698364,-1.0047950744628906,0.3673763275146484,-0.0642916709184646,0.0901763290166854,-0.0448209159076213,walking
1761303839997589200,-0.3459910154342651,-0.92572021484375,0.3604890704154968,-0.0740652307868003,0.1078908964991569,-0.0417666807770729,walking
1761303840007726000,-0.2290496826171875,-0.8753299713134766,0.3526730537414551,-0.0820062458515167,0.126216322183609,-0.0295497365295887,walking
1761303840017863000,-0.1127039194107055,-0.8249282836914062,0.3768966197967529,-0.0948340371251106,0.1420983374118805,-0.0252738054841756,walking
1761303840027999700,0.0854939818382263,-0.7221517562866211,0.3958854675292969,-0.0972774252295494,0.1610346138477325,-0.0332148186862468,walking
1761303840038136600,0.2810531258583069,-0.5669918060302734,0.360832929611206,-0.1107160672545433,0.1750840991735458,-0.0344365127384662,walking
1761303840048273400,0.3275468945503235,-0.4885950088500976,0.3070013523101806,-0.1082726791501045,0.1769166439771652,-0.028938889503479,walking
1761303840058410200,0.4044035077095032,-0.4485549926757812,0.3371087312698364,-0.1052184402942657,0.1879118829965591,-0.022219568490982,walking
1761303840068547000,0.4410024285316467,-0.4060535430908203,0.1903988718986511,-0.1039967462420463,0.2056264579296112,-0.0020616094116121,walking
1761303840078684000,0.5119181275367737,-0.3970317840576172,0.3172550201416015,-0.0948340371251106,0.201350525021553,0.0119878770783543,walking
1761303840088820700,0.5366299152374268,-0.3521633148193359,0.3079200387001037,-0.0923906490206718,0.2007396817207336,0.0187071971595287,walking
1761303840098957600,0.6209948658943176,-0.2381448745727539,0.2174813151359558,-0.0911689549684524,0.2068481594324112,0.0193180441856384,walking
1761303840109094400,0.6360999941825867,-0.2176418304443359,0.2215021848678589,-0.0801737010478973,0.2068481594324112,0.0174855031073093,walking
1761303840119231500,0.5839399695396423,-0.2473058700561523,0.2208093404769897,-0.0789520069956779,0.2123457789421081,0.0217614341527223,walking
1761303840129368000,0.4883156418800354,-0.3079051971435547,0.1464081406593322,-0.0752869248390197,0.2172325551509857,0.0284807533025741,walking
1761303840139505200,0.4353086352348327,-0.2369422912597656,0.1055805087089538,-0.0752869248390197,0.2221193313598632,0.0352000743150711,walking
1761303840149642000,0.3605257272720337,-0.2329568862915039,0.062227725982666,-0.0777303129434585,0.2208976447582245,0.0394760034978389,walking
1761303840159778800,0.3551357984542846,-0.2313833236694336,0.0431745052337646,-0.0746760740876197,0.2196759432554245,0.0400868505239486,walking
1761303840169915600,0.36171954870224,-0.2321996688842773,0.0290037393569946,-0.0734543800354003,0.2263952642679214,0.0406976975500583,walking
1761303840180052500,0.3661946654319763,-0.271214485168457,0.00504070520401,-0.0746760740876197,0.2434989959001541,0.0394760034978389,walking
1761303840190189300,0.3925853967666626,-0.2839584350585937,0.020090103149414,-0.0673459097743034,0.2416664510965347,0.0352000743150711,walking
1761303840200326100,0.3639156222343445,-0.2943677902221679,0.0123453736305236,-0.0551289655268192,0.2520508468151092,0.0370326153934001,walking
1761303840210463000,0.2848864197731018,-0.3311243057250976,0.0323417782783508,-0.0404686294496059,0.2526617050170898,0.0400868505239486,walking
1761303840220599800,0.1955814957618713,-0.3224201202392578,0.0102943778038024,-0.0300842281430959,0.2569376230239868,0.049860406666994,walking
1761303840230736600,0.0746987462043762,-0.3733844757080078,0.0027834773063659,-0.0282516852021217,0.2593810260295868,0.0578014217317104,walking
1761303840240873500,0.0492960214614868,-0.3813028335571289,-0.0179551839828491,-0.0172564350068569,0.259991854429245,0.0614665038883686,walking
1761303840251010300,0.1733054518699646,-0.3607330322265625,-0.0282384157180786,-0.0080937258899211,0.2661003470420837,0.0492495596408844,walking
1761303840261147100,0.2525003552436828,-0.3212871551513672,-0.0493491888046264,0.0041232188232243,0.2801498174667358,0.0419193916022777,walking
1761303840271284000,0.1827531456947326,-0.3249931335449219,-0.1311476230621338,0.0181727055460214,0.2850365936756134,0.0492495596408844,walking
1761303840281420800,0.09294193983078,-0.3526239395141601,-0.1800211668014526,0.035887274891138,0.2941993176937103,0.0614665038883686,walking
1761303840291557600,0.0669224262237548,-0.3372678756713867,-0.0910233855247497,0.0529909990727901,0.3015294671058655,0.071240060031414,walking
1761303840301694500,0.1586009860038757,-0.2337980270385742,-0.0793808698654174,0.0700947195291519,0.3033620119094848,0.065131589770317,walking
1761303840311831300,0.2749865651130676,-0.1880636215209961,-0.0741848349571228,0.0786465853452682,0.3137464225292206,0.0553580336272716,walking
1761303840321968000,0.3183789849281311,-0.2094449996948242,-0.147641122341156,0.081089973449707,0.3210766017436981,0.0425302386283874,walking
1761303840332105000,0.2580390572547912,-0.297856330871582,-0.1865215897560119,0.0908635333180427,0.3222982883453369,0.0278699062764644,walking
1761303840342241800,0.2992159128189087,-0.3433971405029297,-0.1199309825897216,0.1177408099174499,0.3216874301433563,0.0168746560811996,walking
1761303840352378600,0.2090004086494445,-0.3698263168334961,-0.0904634594917297,0.1299577504396438,0.3180223405361175,0.0156529601663351,walking
1761303840362515500,0.111496090888977,-0.3675775527954101,-0.146054208278656,0.1397313177585601,0.3168006539344787,0.0187071971595287,walking
1761303840372652300,0.3288887143135071,-0.2389507293701172,-0.1772159934043884,0.1440072357654571,0.3192440569400787,0.0003817795368377,walking
1761303840382789400,0.4831399321556091,-0.1115694046020507,-0.2076367139816284,0.1446180939674377,0.3204657435417175,-0.0167219433933496,walking
1761303840392926200,0.480520486831665,-0.1370925903320312,-0.2042313814163208,0.1488940119743347,0.3259633779525757,-0.0277171935886144,walking
1761303840403063000,0.3938674926757812,-0.1670055389404297,-0.2071790099143982,0.1568350344896316,0.3265742063522339,-0.0350473597645759,walking
1761303840413200000,0.4200413823127746,-0.1565275192260742,-0.1690489053726196,0.1672194302082061,0.327795922756195,-0.0429883748292923,walking
1761303840423336700,0.4041326642036438,-0.118072509765625,-0.1543823480606079,0.1745496094226837,0.3284067511558532,-0.0509293898940086,walking
1761303840433473500,0.341495931148529,-0.1249980926513671,-0.2502662539482116,0.1776038408279419,0.3241308331489563,-0.0527619309723377,walking
1761303840443610400,0.2826282978057861,-0.1177349090576171,-0.2756299972534179,0.1843231618404388,0.3259633779525757,-0.0570378638803958,walking
1761303840453747200,0.2816131114959717,-0.0777349472045898,-0.2332835495471954,0.1983726471662521,0.3284067511558532,-0.0613137930631637,walking
1761303840463884000,0.2955741286277771,-0.0950527191162109,-0.1947367489337921,0.2154763638973236,0.3375694751739502,-0.06986565887928,walking
1761303840474020900,0.2391417622566223,-0.0909786224365234,-0.2214727103710174,0.2283041626214981,0.3375694751739502,-0.075363278388977,walking
1761303840484157700,0.2480894923210144,-0.0399637222290039,-0.3105781674385071,0.2356343269348144,0.3369586169719696,-0.0851368382573127,walking
1761303840494294500,0.2437312006950378,0.0454225540161132,-0.3594706356525421,0.2466295808553695,0.3424562513828277,-0.0955212414264679,walking
1761303840504431400,0.1578570008277893,0.0634393692016601,-0.3529461920261383,0.2509055137634277,0.3424562513828277,-0.1046839505434036,walking
1761303840514568200,0.1241152882575988,0.0669431686401367,-0.3455762863159179,0.2606790661811828,0.3485647141933441,-0.1181225851178169,walking
1761303840524705000,0.1164007782936096,0.1924428939819336,0.0106915831565856,0.3138227760791778,0.3455104827880859,-0.1388913989067077,walking
1761303840534841900,-0.1180676817893982,0.4262886047363281,0.6378623843193054,0.3474193811416626,0.2996969223022461,-0.1572168171405792,walking
1761303840544978700,-0.3446272611618042,0.9738998413085938,0.125625878572464,0.3315373361110687,0.2783172726631164,-0.1993652731180191,walking
1761303840555115500,-0.0331013798713684,1.5449552536010742,0.0268982052803039,0.3297048211097717,0.2679328918457031,-0.2708344161510467,walking
1761303840565252400,0.6304387450218201,1.7086610794067385,0.0395663380622863,0.2912214398384094,0.2166217118501663,-0.3142045736312866,walking
1761303840575389200,0.1502678990364074,2.164057731628418,-0.2315088063478469,0.2539597451686859,0.1921878159046173,-0.3355842232704162,walking
1761303840585526000,0.3577315211296081,1.947535514831543,0.3486132025718689,0.241742804646492,0.1952420622110366,-0.3471903204917907,walking
1761303840595663000,0.3164328336715698,1.6627721786499023,0.7057241797447205,0.1995943486690521,0.2044047713279724,-0.3245889544486999,walking
1761303840605799700,-0.0537617802619934,1.2168331146240234,0.8319216966629028,0.1678302884101867,0.2056264579296112,-0.2830513417720794,walking
1761303840615936800,-0.095709204673767,0.8107509613037109,0.9578244686126708,0.1207950487732887,0.2141783237457275,-0.237237811088562,walking
1761303840626073600,-0.0070181488990783,0.308176040649414,0.7491521239280701,0.07437065243721,0.2221193313598632,-0.2054737508296966,walking
1761303840636210400,0.1874778866767883,-0.1808280944824218,0.5515457987785339,0.035887274891138,0.2086806893348693,-0.1682120710611343,walking
1761303840646347300,0.1624401211738586,-0.8282585144042969,0.4109298288822174,0.0035123717971146,0.2001288384199142,-0.1278961449861526,walking
1761303840656484000,0.1239522099494934,-1.3878240585327148,0.3550188243389129,-0.0135913519188761,0.1824142634868621,-0.0894127711653709,walking
1761303840666621000,0.2174673676490783,-1.6831579208374023,0.379336267709732,-0.0251974500715732,0.1720298528671264,-0.0716981962323188,walking
1761303840676757800,0.4441217184066772,-1.7866315841674805,0.3926230669021606,-0.0392469353973865,0.1732515543699264,-0.0680331140756607,walking
1761303840686894600,0.4456787109375,-1.7655534744262695,0.3743163049221039,-0.0679567605257034,0.1744732409715652,-0.0674222633242607,walking
1761303840697031400,0.5529218316078186,-1.7349843978881836,0.3406208753585815,-0.1015533581376075,0.195852905511856,-0.0961320847272872,walking
1761303840707168300,0.3622688055038452,-1.4917497634887695,0.4672751128673553,-0.1009425073862075,0.1592020690441131,-0.0588704049587249,walking
1761303840717305000,0.0650438666343689,-1.0316877365112305,0.5122889280319214,-0.1039967462420463,0.124383769929409,-0.0405449867248535,walking
1761303840727442000,0.2263393402099609,-0.8904943466186523,0.4578202664852142,-0.09605573117733,0.0999498814344406,-0.0576487109065055,walking
1761303840737578800,0.1724729239940643,-0.7641363143920898,0.4500466287136078,-0.0856713280081749,0.0736834481358528,-0.0839151442050933,walking
1761303840747715600,0.2049700915813446,-0.5905342102050781,0.454228013753891,-0.0630699768662452,0.0546708293259143,-0.1107924208045005,walking
1761303840757852400,0.1073878705501556,-0.4270496368408203,0.5297189950942993,-0.0435228683054447,0.0369562581181526,-0.1248419061303138,walking
1761303840767989200,-0.0012218654155731,-0.2783784866333008,0.5373291969299316,-0.0288625322282314,0.0198525357991457,-0.1321720778942108,walking
1761303840778126000,-0.0495065152645111,-0.0871391296386718,0.5389516353607178,-0.0178672820329666,0.0009162708884105,-0.1364480108022689,walking
1761303840788263000,-0.1636225432157516,0.0367584228515625,0.4658654034137726,-0.0019852535333484,-0.0253501608967781,-0.123009368777275,walking
1761303840798399700,-0.3294623792171478,0.0458278656005859,0.4474017918109894,-0.0062611843459308,-0.0125223686918616,-0.1040730997920036,walking
1761303840808536600,-0.2577844560146332,0.0381965637207031,0.5254151225090027,0.0029015245381742,-0.0076355906203389,-0.0869693756103515,walking
1761303840818673700,-0.2356915026903152,-0.0911922454833984,0.6593658924102783,0.0145076224580407,-0.0161874517798423,-0.0710873529314994,walking
1761303840828810500,-0.2916394770145416,-0.2082710266113281,0.5378415584564209,0.0181727055460214,-0.021074229851365,-0.0558161698281765,walking
1761303840838947000,-0.1866297870874405,-0.2701044082641601,0.5821660757064819,0.0255028735846281,-0.027793550863862,-0.0405449867248535,walking
1761303840849084200,-0.1139862686395645,-0.3723163604736328,0.4968710541725158,0.0200052484869956,-0.0296260919421911,-0.0301605835556983,walking
1761303840859221000,-0.018177330493927,-0.4551477432250976,0.4500313103199005,0.0200052484869956,-0.0387887991964817,-0.0252738054841756,walking
1761303840869357800,0.024878978729248,-0.6046257019042969,0.4316141009330749,0.0157293174415826,-0.0613901503384113,-0.026495499536395,walking
1761303840879494700,0.0710626244544982,-0.6892709732055664,0.4584337770938873,0.0132859274744987,-0.0797155648469924,-0.0356582105159759,walking
1761303840889631500,0.1258958280086517,-0.7211952209472656,0.5442607402801514,0.0065666078589856,-0.0949867516756057,-0.052151083946228,walking
1761303840899768300,0.1657421290874481,-0.7793064117431641,0.5280596613883972,-0.0087045738473534,-0.1053711548447609,-0.0710873529314994,walking
1761303840909905200,0.1861845850944519,-0.7751684188842773,0.479016900062561,-0.0270299911499023,-0.1120904684066772,-0.0930778533220291,walking
1761303840920042000,0.1453797817230224,-0.8068084716796875,0.4498699903488159,-0.0441337153315544,-0.1175880953669548,-0.1022405624389648,walking
1761303840930178800,0.0984857082366943,-0.869384765625,0.5080384016036987,-0.0551289655268192,-0.1188097894191742,-0.1120141148567199,walking
1761303840940315600,-0.0453617274761199,-0.9102935791015624,0.5988736152648926,-0.0612374395132064,-0.1212531775236129,-0.1205659806728363,walking
1761303840950452500,-0.1951064765453338,-0.8985319137573242,0.7197152972221375,-0.0691784545779228,-0.1224748790264129,-0.129728689789772,walking
1761303840960589300,-0.2713911235332489,-0.9321727752685548,0.8374587893486023,-0.072843536734581,-0.1145338639616966,-0.1437781751155853,walking
1761303840970726100,-0.3680117726325989,-0.8892583847045898,0.8368567228317261,-0.0826170891523361,-0.1029277667403221,-0.152940884232521,walking
1761303840980863000,-0.5448585748672485,-0.8034172058105469,0.7615298628807068,-0.089336410164833,-0.1023169159889221,-0.1602710485458374,walking
1761303840990999800,-0.6134709715843201,-0.7057704925537109,0.7164475917816162,-0.0991099700331687,-0.1078145429491996,-0.1639361381530761,walking
1761303841001136600,-0.7192475199699402,-0.5867681503295898,0.6612392067909241,-0.1058292910456657,-0.1114796251058578,-0.1492757946252823,walking
1761303841011273500,-0.8531015515327454,-0.498967170715332,0.6263996958732605,-0.1180462315678596,-0.1041494607925415,-0.128506988286972,walking
1761303841021410300,-0.8700551986694336,-0.353973388671875,0.6798070669174194,-0.119878776371479,-0.1023169159889221,-0.1004080176353454,walking
1761303841031547100,-0.9369991421699524,-0.1185331344604492,0.7737851142883301,-0.1186570823192596,-0.0980409830808639,-0.0778066664934158,walking
1761303841041684200,-0.8185494542121887,0.01605224609375,0.843065619468689,-0.1241547018289566,-0.0870457366108894,-0.0906344652175903,walking
1761303841051821000,-0.5527570247650146,0.1598691940307617,0.8449862003326416,-0.1272089481353759,-0.08582404255867,-0.1101815775036811,walking
1761303841061958000,-0.5834999680519104,0.2556209564208984,0.7485426068305969,-0.1314848661422729,-0.0821589529514312,-0.1126249656081199,walking
1761303841072094700,-0.6583014130592346,0.1984548568725586,0.6958500146865845,-0.1498102843761444,-0.0766613334417343,-0.1010188683867454,walking
1761303841082231600,-0.6708328723907471,0.2179126739501953,0.6529037356376648,-0.149199441075325,-0.0833806544542312,-0.0778066664934158,walking
1761303841092368400,-0.6035558581352234,0.2852134704589844,0.5825557112693787,-0.1614163815975189,-0.0815481096506118,-0.0637571811676025,walking
1761303841102505200,-0.3926141262054443,0.354863166809082,0.4897124171257019,-0.1730224788188934,-0.0784938707947731,-0.0454317666590213,walking
1761303841112642000,-0.2533565163612366,0.297922134399414,0.3694007396697998,-0.1870719790458679,-0.0662769302725792,-0.0258846525102853,walking
1761303841122779000,-0.1537002027034759,0.2174606323242187,0.2545185685157776,-0.2072299271821975,-0.062000997364521,0.0083227939903736,walking
1761303841132915700,0.0124783441424369,0.1086587905883789,0.218111515045166,-0.2133384048938751,-0.0546708293259143,0.033367533236742,walking
1761303841143052500,0.1624080389738083,-0.0689630508422851,0.2378166317939758,-0.2261662036180496,-0.0485623553395271,0.0486387126147747,walking
1761303841153189400,0.330712080001831,-0.2794742584228515,0.2474226951599121,-0.2310529798269271,-0.0375671051442623,0.0529146455228328,walking
1761303841163326200,0.4256090521812439,-0.4560070037841797,0.3027458786964416,-0.2273878902196884,-0.0290152449160814,0.0431410893797874,walking
1761303841173463000,0.4223301708698272,-0.6106014251708984,0.2988547682762146,-0.2212794125080108,-0.0314586348831653,0.0431410893797874,walking
1761303841183599900,0.1858672201633453,-0.7862977981567383,0.2576017379760742,-0.2133384048938751,-0.0534491352736949,0.056579727679491,walking
1761303841193736700,0.0358121544122695,-0.8899726867675781,0.2297282814979553,-0.2005106061697006,-0.0772721767425537,0.0559688806533813,walking
1761303841203873500,-0.0090328156948089,-0.8827333450317383,0.1899237632751464,-0.1980672180652618,-0.0968192890286445,0.0578014217317104,walking
1761303841214010400,-0.0804311111569404,-0.8686199188232422,0.1589934229850769,-0.1870719790458679,-0.1108687743544578,0.0468061715364456,walking
1761303841224147200,-0.0386487543582916,-0.715937614440918,0.2004616260528564,-0.1748550236225128,-0.1206423342227935,0.0321458354592323,walking
1761303841234284300,-0.1198863089084625,-0.6410274505615234,0.186378002166748,-0.1821851879358291,-0.108425386250019,0.0321458354592323,walking
1761303841244421000,-0.3336997628211975,-0.5014457702636719,0.1469832062721252,-0.1785201132297516,-0.08582404255867,0.0315349884331226,walking
1761303841254558000,-0.3652548789978027,-0.3431463241577148,0.423179030418396,-0.1601946949958801,-0.0888782739639282,0.033367533236742,walking
1761303841264694800,-0.2904572784900665,-0.1707954406738281,0.3823466300964355,-0.1779092699289322,-0.1279724985361099,0.0303132943809032,walking
1761303841274831600,-0.4075316488742828,0.1096143722534179,-0.4346247911453247,-0.2011214643716812,-0.1188097894191742,0.0303132943809032,walking
1761303841284968400,-0.3291725218296051,0.2248392105102539,-0.1767915487289428,-0.1589729934930801,-0.1273616552352905,0.0248156692832708,walking
1761303841295105300,-0.2284187525510788,0.1189699172973632,0.1496739387512207,-0.1357607990503311,-0.1450762301683426,0.0211505871266126,walking
1761303841305242000,-0.4998602271080017,0.0477113723754882,-0.0576425790786743,-0.1217113137245178,-0.1267508119344711,0.0321458354592323,walking
1761303841315379000,-0.6594879627227783,-0.0010910034179687,0.0840585231781005,-0.1265980899333953,-0.1127013191580772,0.0437519364058971,walking
1761303841325515800,-0.6643288731575012,0.050002098083496,0.0099362134933471,-0.142480120062828,-0.0998735278844833,0.0541363395750522,walking
1761303841335652600,-0.6813119649887085,0.0532474517822265,-0.0611604452133178,-0.1479777544736862,-0.08521319180727,0.0602448098361492,walking
1761303841345789400,-0.5533517003059387,-0.0048332214355468,0.020174503326416,-0.1418692767620086,-0.0705528557300567,0.0510821007192134,walking
1761303841355926300,-0.3878933191299438,-0.0668716430664062,-0.0016428232192993,-0.1235438585281372,-0.0607793033123016,0.0321458354592323,walking
1761303841366063000,-0.3183183372020721,-0.1820993423461914,-0.0648138523101806,-0.1168245375156402,-0.0583359114825725,0.0217614341527223,walking
1761303841376200000,-0.3987237215042114,-0.2177000045776367,-0.171655535697937,-0.1168245375156402,-0.0601684562861919,0.026648212224245,walking
