timestamp,acc_x,acc_y,acc_z,gyr_x,gyr_y,gyr_z,activity
1761225799100504000,-0.3028170083122328,-0.2898848633617162,-0.0562906270205974,0.010197433643043,-0.1850883513689041,0.115218311548233,walking
1761225799110517200,-0.3199127392156049,-0.2761328168630599,-0.0662035337477922,0.0144691430032253,-0.1589337140321731,0.0841773077845573,walking
1761225799120531200,-0.2560092260384932,-0.3609545418411493,-0.0544604889839887,0.0083214826881885,-0.1453146636486053,0.0499067790806293,walking
1761225799130544000,-0.2462338280858471,-0.3737742759257554,0.0729910019308328,-0.0218260344117879,-0.1343847811222076,0.0227260272949934,walking
1761225799140557000,-0.2603754218913615,-0.2997732201695442,0.238140647599101,-0.0690938159823417,-0.1253641843795776,0.0086082331836223,walking
1761225799150571000,-0.2141622810425236,-0.2531827339082956,0.3243582108497619,-0.1101823970675468,-0.1126569211483001,-0.0027426914311945,walking
1761225799160584200,-0.1958320764407515,-0.2796241661101579,0.306067936399579,-0.1403502821922302,-0.0903547555208206,-0.0196949336677789,walking
1761225799170597000,-0.2111725611746311,-0.2978057194888591,0.2913514287829399,-0.1783410757780075,-0.0678864642977714,-0.0348925292491912,walking
1761225799180611000,-0.2718362887129187,-0.2994441343456506,0.2357300793260335,-0.1958440542221069,-0.0373600125312805,-0.0477436743676662,walking
1761225799190624300,-0.3286674888836219,-0.2874924152672291,0.0972270330429077,-0.1919622272253036,-0.0049203117378056,-0.0621617585420608,walking
1761225799200637200,-0.4109437306299805,-0.220053786766529,0.0558452213406562,-0.1805581003427505,0.0213593058288097,-0.0752161666750907,walking
1761225799210650000,-0.4547033043142408,-0.2141431014180183,0.0299830503314733,-0.1483857929706573,0.0172369983047246,-0.0926367044448852,walking
1761225799220664300,-0.4076786278868093,-0.2260287695229053,0.0376531465679407,-0.1128196492791175,0.0025498464237898,-0.1171834841370582,walking
1761225799230677200,-0.3993421036308631,-0.252098445802927,0.120303957247734,-0.0908456444740295,-4.78010624647e-05,-0.1409764438867569,walking
1761225799240690200,-0.3592131780665367,-0.2634545370757579,0.3322445801854133,-0.0986450314521789,-0.0062681892886757,-0.1537668704986572,walking
1761225799250704100,-0.2788133977165445,-0.2437064650326967,0.5361988805443049,-0.1197548434138298,-0.0362415313720703,-0.152793750166893,walking
1761225799260717000,-0.1570109820719808,-0.1625122829020023,0.7278641926944256,-0.15519879758358,-0.0831227153539657,-0.1388371139764785,walking
1761225799270730200,-0.0744740800954401,-0.1207569617122411,0.8786702557116747,-0.2050081640481948,-0.141535148024559,-0.1062440127134323,walking
1761225799280743200,-0.0312345847625285,-0.1184814179956913,0.7880985889047384,-0.2532222867012024,-0.1609930098056793,-0.0648552998900413,walking
1761225799290757000,-0.0266946397779509,-0.1057546228915452,0.5408715485304594,-0.2884505689144134,-0.143510416150093,-0.0168323796242475,walking
1761225799300770000,-0.1403473955081775,-0.0374228449434042,0.3491536294102668,-0.3149629235267639,-0.1166389361023902,0.0310290269553661,walking
1761225799310783200,-0.2182805300163105,-0.0274830502092838,0.2121767697811126,-0.3227497637271881,-0.0970641672611236,0.0673920959234237,walking
1761225799320797200,-0.3394824955496937,-0.0843237123280763,0.1240729543924331,-0.3178007900714874,-0.0745830610394477,0.0978312715888023,walking
1761225799330810000,-0.4371240276776253,-0.2266805114299059,0.1406827284097671,-0.3016801476478576,-0.0707017704844474,0.1251353323459625,walking
1761225799340823300,-0.5560312698699533,-0.3889537248790264,0.129194535189867,-0.2752957940101623,-0.0978734642267227,0.1379339694976806,walking
1761225799350836200,-0.6604338936306536,-0.5659288328975439,0.1156523320496082,-0.2440569102764129,-0.124081365764141,0.1349829137325287,walking
1761225799360850200,-0.74337754977718,-0.6611731676906347,0.0988870752096176,-0.209167867898941,-0.1321360319852829,0.1282929182052612,walking
1761225799370863000,-0.7719378738291561,-0.7071639344930648,0.0759095197260379,-0.172350987792015,-0.1335943788290023,0.1187561377882957,walking
1761225799380876000,-0.7789207184538245,-0.7591594946682453,0.1070148520857095,-0.1342783421278,-0.1212147027254104,0.1216019317507743,walking
1761225799390890200,-0.7622370754826814,-0.801527394798398,0.1573661521852016,-0.0949490442872047,-0.1177621781826019,0.1269897669553756,walking
1761225799400903200,-0.777060842866078,-0.865610867652297,0.3519558273494243,-0.0776069909334182,-0.1277583390474319,0.118406169116497,walking
1761225799410916000,-0.821434456795454,-0.9257271904408932,0.5690495952665805,-0.0761973783373832,-0.146130695939064,0.1017409041523933,walking
1761225799420929300,-0.8750835563313215,-0.9644833298146724,0.7162263618707656,-0.0957720875740051,-0.1430324465036392,0.0832360535860061,walking
1761225799430943200,-0.8815506334535778,-0.958993500226736,0.8193968134880065,-0.1192313432693481,-0.1337057799100875,0.0700179859995842,walking
1761225799440956200,-0.9099735948614776,-0.942663712194562,0.9485814118057488,-0.1524924337863922,-0.1374130696058273,0.0551124587655067,walking
1761225799450969300,-0.8896971880953758,-0.9286614903271198,1.064738186246157,-0.195502758026123,-0.1370311677455902,0.0443120114505291,walking
1761225799460983300,-0.8787165060061961,-0.9758107795149088,1.0117033461511131,-0.2320024222135543,-0.1383719593286514,0.033909972757101,walking
1761225799470996200,-0.9202172679129988,-1.002878234660625,0.7378677003145218,-0.2457352727651596,-0.1080177798867225,0.0244634747505188,walking
1761225799481009200,-1.0550189023949206,-0.9992606286853551,0.3991927948206663,-0.2310721129179,-0.0635496079921722,0.0016634308267384,walking
1761225799491022000,-1.1773381449878215,-0.916859408852458,0.1871703388184309,-0.1921180635690689,-0.0170902274549007,-0.031398382037878,walking
1761225799501036300,-1.1837559030756353,-0.8120511269003152,0.157553783711791,-0.1422337144613266,0.0134898200631141,-0.0607844404876232,walking
1761225799511049200,-1.1009295166332274,-0.7502204014092684,0.2191699896693229,-0.0873243883252143,0.0243113078176975,-0.086450919508934,walking
1761225799521062100,-1.020384153800085,-0.7165092704653739,0.3013005758672952,-0.0503637641668319,0.0287670008838176,-0.1081919819116592,walking
1761225799531076000,-0.9647446110993624,-0.7031722345083952,0.3655681731164455,-0.0215310528874397,0.0402468256652355,-0.1268064081668853,walking
1761225799541089000,-0.9273417129654437,-0.6544108339488506,0.4502747472822666,-0.0107333026826381,0.0548258163034915,-0.1504336148500442,walking
1761225799551102200,-0.8527923756767064,-0.5560018976449966,0.4981763161420822,0.004077068530023,0.038172535598278,-0.157954916357994,walking
1761225799561115000,-0.7201308219633996,-0.4137754469245672,0.5786942064464092,0.0459458790719509,-0.0488127097487449,-0.1476559787988662,walking
1761225799571128800,-0.4695252450667321,-0.257331670281291,0.6055635086715221,0.1291720569133758,-0.2171372771263122,-0.1261043399572372,walking
1761225799581142000,-0.1665975063890218,-0.2793850966572761,0.4124953439861535,0.2557159662246704,-0.377878725528717,-0.115564577281475,walking
1761225799591154700,0.0723627870298922,-0.2035790373057127,0.1620961033165454,0.3836765885353088,-0.4777059853076935,-0.1074035838246345,walking
1761225799601169000,0.0390603099521249,-0.0680938775390386,0.0829267050117254,0.4651401937007904,-0.4812341332435608,-0.1039097681641578,walking
1761225799611182000,0.0102892657589167,-0.0208428815424442,0.0720855775237083,0.4860188663005829,-0.4102459847927093,-0.0723164230585098,walking
1761225799621194800,0.1327315502095967,0.0362719213426113,0.07241817047894,0.4465140402317047,-0.2876920998096466,-0.0162496957927942,walking
1761225799631209000,0.2646474001221359,0.0565279429078102,0.0710036275058984,0.3721881508827209,-0.1097005382180213,0.0468278042972087,walking
1761225799641222000,0.3321729762539267,-0.0621639029681682,-0.0320657018244266,0.2712705135345459,0.1624199450016021,0.1086302027106285,walking
1761225799651234800,0.3202244720458984,-0.2097691241174936,-0.1205547171384096,0.1468095183372497,0.4479512870311737,0.1740622073411941,walking
1761225799661248000,0.2076274359136819,-0.3305862915843725,0.1680102957963943,0.001362451352179,0.6379984021186829,0.2124265283346176,walking
1761225799671261700,0.1241211774483323,-0.6123363638073206,0.569923455491662,-0.1247020065784454,0.6985312700271606,0.2144414782524109,walking
1761225799681275000,0.2248211472988128,-0.881176101052761,0.7024597023248672,-0.2115468680858612,0.6505320072174072,0.2055659145116806,walking
1761225799691287800,0.3337495779208839,-0.9534101471364498,0.6530541586428881,-0.2579231560230255,0.5424821972846985,0.1948664039373397,walking
1761225799701301800,0.4305922512887045,-0.929433059221506,0.4725169742286205,-0.270321637392044,0.3900863528251648,0.1878288388252258,walking
1761225799711315000,0.4454550355082377,-0.7356085232108831,0.101023502716422,-0.2386601269245147,0.2132245004177093,0.2021537125110626,walking
1761225799721327900,0.3476437728365883,-0.4751122514188289,-0.3924316301226616,-0.1689237207174301,0.0650137141346931,0.228560522198677,walking
1761225799731340800,0.1652806881694123,-0.304327814733982,-0.9024544514030216,-0.0801219493150711,-0.0416280403733253,0.2402283698320388,walking
1761225799741355000,-0.0474117760488763,-0.1408551623672246,-1.3107611115276814,0.0112752690911293,-0.0826037228107452,0.2457663714885711,walking
1761225799751367700,-0.2380364931048825,0.0186386494964361,-1.6355927851080894,0.0903897956013679,-0.0608819164335727,0.2439708709716797,walking
1761225799761380900,-0.3672055650599301,0.1215957506239414,-1.8426397907853125,0.1551676392555236,0.0297465287148952,0.2538589537143707,walking
1761225799771395000,-0.4103558842720464,0.2249684468150138,-1.8429852432221168,0.200419008731842,0.1525504738092422,0.26832976937294,walking
1761225799781407700,-0.4368533209774642,0.2596826173216104,-1.6933026312768458,0.2198334038257599,0.2869892716407776,0.266366571187973,walking
1761225799791421000,-0.4182469297828152,0.217694656419754,-1.380264855864644,0.2258249819278717,0.4022008180618286,0.256357342004776,walking
1761225799801433900,-0.3970627970546483,0.22704583761096,-0.9964245284765958,0.2174029648303985,0.4680016338825226,0.2513520717620849,walking
1761225799811447800,-0.3033769072173163,0.1906114191830158,-0.5770785879433155,0.1922041326761245,0.4992642104625702,0.2468867599964141,walking
1761225799821461000,-0.1741642883814871,0.1312736795514822,-0.2240273665726184,0.1696797758340835,0.4992961287498474,0.2424328178167343,walking
1761225799831474000,-0.0175634214803576,0.1142570782989263,-0.0023994623571634,0.1574699729681015,0.4879196286201477,0.2418527901172638,walking
1761225799841488000,0.1278632500534877,0.1474257729291915,0.1388257023662328,0.1480775326490402,0.4666826426982879,0.2323332577943802,walking
1761225799851500800,0.1655022219656035,0.2223001043885946,0.2600461899369954,0.1399764567613601,0.4388265013694763,0.2256314158439636,walking
1761225799861513700,0.1890184143705293,0.3041419367730617,0.3243722393751144,0.1390423476696014,0.4128593206405639,0.2082696706056594,walking
1761225799871527000,0.207127012110874,0.3720838386207818,0.3451724508196115,0.1491088271141052,0.3995448648929596,0.1916888356208801,walking
1761225799881540900,0.1945553710358217,0.4363520203918218,0.2904945196926594,0.1673885434865951,0.4227896332740783,0.1743768155574798,walking
1761225799891553800,0.18975962465927,0.5468161361485719,0.0878805280268192,0.1980820149183273,0.469133973121643,0.1583472490310669,walking
1761225799901567000,0.383885335573554,0.4334557144284248,0.1181377191245555,0.220118448138237,0.4744262099266052,0.1292399615049362,walking
1761225799911581000,0.5118216143306344,0.3356406523644924,0.1886100162327289,0.2453191429376602,0.4372817575931549,0.1154482439160347,walking
1761225799921593900,0.6561124502349645,0.4579238007307052,0.2400648936599493,0.2732886970043182,0.4170096516609192,0.1145174652338028,walking
1761225799931606800,0.6510780362643301,0.6486217291533947,0.3729506845831871,0.2904264032840729,0.3976655304431915,0.1185553446412086,walking
1761225799941620000,0.6779045222610235,0.6829957079201936,0.6527852785736322,0.2760701775550842,0.3455266952514648,0.1281981617212295,walking
1761225799951634000,0.7678432979919015,0.5858966851711273,0.8846949228286742,0.241993173956871,0.2706950604915619,0.1428487449884414,walking
1761225799961646800,0.9135228848408908,0.3485661849111318,1.032362687820196,0.207865372300148,0.1611258685588836,0.1592530906200409,walking
1761225799971659800,0.9676879710748792,0.1234165363103151,1.1195172396600246,0.1639610230922699,0.0303907562047243,0.1548207849264145,walking
1761225799981674000,0.8257859300032258,0.0079518357872962,1.160427342197299,0.1080856993794441,-0.1083503663539886,0.1276708990335464,walking
1761225799991687000,0.6270461494222282,-0.0864098709523677,1.0894324825197457,0.0380520224571228,-0.2296890467405319,0.0914060994982719,walking
1761225800001699800,0.4466991538178175,-0.074102178043127,0.88438571074903,-0.0496332384645938,-0.2966774404048919,0.0558310002088546,walking
1761225800011712800,0.2625373126329854,0.0042161563903093,0.6377344244360923,-0.1472823023796081,-0.3092901706695556,0.022837895900011,walking
1761225800021726700,0.0900359159624204,0.0139899469077587,0.4171136514365672,-0.2633309662342071,-0.2909868061542511,-0.0216417200863361,walking
1761225800031740000,-0.0305338891472667,0.0114992991358041,0.0501882184922695,-0.3716406524181366,-0.2145631462335586,-0.0711243152618408,walking
1761225800041752800,-0.0534833510475233,0.0794061296701431,-0.3550906182438135,-0.4506451785564422,-0.1181702017784118,-0.1134886443614959,walking
1761225800051766800,-0.0556963509218767,0.2476274378687143,-0.9332353741139172,-0.4470286071300506,-0.0021040448918938,-0.1288380473852157,walking
1761225800061780000,-0.1109578906230628,0.4571890567153692,-1.5901982306331397,-0.3876433670520782,0.1464896500110626,-0.1367860585451126,walking
1761225800071793000,-0.1970138335712254,0.5386836830973625,-1.931691700679064,-0.2735617756843567,0.2572150826454162,-0.1626727879047393,walking
1761225800081805800,-0.1867726082051172,0.5650877058982848,-2.0981810705184936,-0.1213993579149246,0.3654221892356872,-0.1872714757919311,walking
1761225800091819800,-0.0130827872012741,0.6087479839265346,-1.9181191024005413,0.03892532736063,0.4205648005008697,-0.1996277421712875,walking
1761225800101833000,0.2105798377121798,0.5810954223692417,-1.3690928889870644,0.1803510934114456,0.3821876645088196,-0.2043911516666412,walking
1761225800111846000,0.4413906721461564,0.4968728323280811,-0.6751216135442256,0.2712812423706054,0.2741930186748504,-0.1963633298873901,walking
1761225800121859800,0.5920105649415404,0.3863976106554269,-0.0724631786644458,0.31523197889328,0.1503337174654007,-0.1901359856128692,walking
1761225800131872800,0.7359475459069014,0.3139431998193264,0.3344453051000833,0.3235442340373993,0.04731972143054,-0.1756824702024459,walking
1761225800141885700,0.8180547512292862,0.3056874126493931,0.6302379312008619,0.2907289266586303,-0.0124108036980032,-0.1498598158359527,walking
1761225800151899000,0.8864045762907713,0.3271919729709625,0.9029548021405934,0.234900027513504,-0.0468633212149143,-0.116917572915554,walking
1761225800161912800,0.8996003040809184,0.2996002016901969,1.103898814767599,0.1595142930746078,-0.0714115500450134,-0.0864768624305725,walking
1761225800171925800,0.898543123178184,0.2724842312276363,1.2216004805624483,0.06827412545681,-0.0922089740633964,-0.0592931769788265,walking
1761225800181939000,0.8420531741932034,0.191351423895359,1.1933324174553157,-0.0165349040180444,-0.1050115302205085,-0.0462963096797466,walking
1761225800191953000,0.7173599690105765,0.1457002643108368,1.0055570984810591,-0.0863968059420585,-0.0839592367410659,-0.0397771559655666,walking
1761225800201965800,0.6010125673688947,0.1757236466526985,0.8481319095849991,-0.1493858695030212,-0.0398647747933864,-0.037417646497488,walking
1761225800211979000,0.6414939961653202,0.1019844567030668,0.7212041502833366,-0.1866224557161331,-0.0544692836701869,-0.03411665558815,walking
1761225800221991700,0.6606766163453459,0.1013297921866178,0.5014344411551952,-0.1713546514511108,-0.0906877294182777,-0.0272438209503889,walking
1761225800232006000,0.5147565352713689,0.1074275245398282,0.2244435461580753,-0.1342349797487259,-0.1063084974884986,-0.042971383780241,walking
1761225800242018800,0.3488799635680392,0.1818359920531511,0.1433276899605989,-0.0749720558524131,-0.1423714905977249,-0.0623430646955966,walking
1761225800252031700,0.3353237684350461,0.2378027939468622,0.1359545308440923,-0.0053093573078513,-0.1937649101018905,-0.0758434236049652,walking
1761225800262046000,0.4064199695952236,0.2084118642896413,0.1461047534584999,0.0602191649377346,-0.2329996973276138,-0.0828907415270805,walking
1761225800272059000,0.4705279923684894,0.1378267544567585,0.2015799724429845,0.1048060804605484,-0.2605844438076019,-0.0920102074742317,walking
1761225800282071800,0.4415761482482775,0.0742062229394912,0.3193944509625435,0.1158326864242553,-0.2724143266677856,-0.1005749031901359,walking
1761225800292085800,0.3781529294013976,-0.0232516962498426,0.4133656970798969,0.0905134752392768,-0.2663825452327728,-0.1206319630146026,walking
1761225800302098700,0.3742999072350561,-0.0890004719674587,0.4524643662810325,0.049768678843975,-0.2334302365779876,-0.1310405284166336,walking
1761225800312111900,0.4319116998568177,-0.1182499473273754,0.5613847597271203,-0.0174324661493301,-0.222776785492897,-0.1264063566923141,walking
1761225800322125000,0.5488626203496009,-0.1623474477291107,0.6443459515303372,-0.0849319696426391,-0.2475316822528839,-0.1169830113649368,walking
1761225800332138800,0.6537522969748825,-0.2108148337781429,0.4897779056310653,-0.1358239203691482,-0.2618086040019989,-0.1061530038714408,walking
1761225800342152000,0.7023811571959405,-0.1996896286517381,0.2652875977218151,-0.1502857506275177,-0.2763023376464844,-0.0914835408329963,walking
1761225800352164900,0.6252069512963294,-0.1825532004117965,-0.0156663556873798,-0.1405391097068786,-0.3104405999183655,-0.0822897776961326,walking
1761225800362177800,0.580752088824287,-0.1668061807036399,-0.2743552857965231,-0.1037845313549041,-0.3558309078216553,-0.0801860243082046,walking
1761225800372192000,0.5433225218791514,-0.1601321097671985,-0.5027344178378582,-0.045009896159172,-0.4052722454071045,-0.0684579908847808,walking
1761225800382204700,0.4614471525512635,-0.2166717431128025,-0.6883505129516124,0.0213934369385242,-0.4490718841552734,-0.0681599527597427,walking
1761225800392217900,0.3178429106716066,-0.3552887711644172,-0.7285667880058289,0.0677028745412826,-0.5058358907699585,-0.0859197750687599,walking
1761225800402231800,0.1293540366005152,-0.4917512515306472,-0.6975520565390586,0.0943853184580802,-0.5797285437583923,-0.1268393695354461,walking
1761225800412244700,-0.0755163556899875,-0.5882710130870342,-0.6672679774343967,0.0946023687720298,-0.6453685164451599,-0.1832949221134185,walking
1761225800422258000,-0.2822243752038106,-0.6878986775308847,-0.6294868205726146,0.0596121586859226,-0.6885697841644287,-0.2626701593399048,walking
1761225800432270800,-0.4425402440400794,-0.667785863828659,-0.6985720472365617,0.0037142697256058,-0.6697369813919067,-0.3438220024108886,walking
1761225800442284800,-0.5482500414092093,-0.5497901835232972,-0.8868015397191047,-0.0655419006943702,-0.573867917060852,-0.4167613685131073,walking
1761225800452298000,-0.5656516599239781,-0.3781716341018676,-1.0940151341348885,-0.1333704888820648,-0.4001413881778717,-0.4668828547000885,walking
1761225800462311000,-0.4651800920018926,-0.1029565166056156,-1.1780319724708794,-0.1796485483646392,-0.2084409594535827,-0.4812802374362945,walking
1761225800472324900,-0.3422221496466547,0.1439782628238201,-1.1049550458222628,-0.2054146379232406,-0.0310411546379327,-0.4685884118080139,walking
1761225800482338000,-0.1527547859322279,0.2755453723639249,-0.8547744163393973,-0.2015430778264999,0.0635574907064437,-0.4419605731964111,walking
1761225800492350700,0.0222458802081644,0.2967015576392412,-0.5538835903167725,-0.1640979647636413,0.0826654061675071,-0.4115496873855591,walking
1761225800502365000,0.1207754472170025,0.2376367897301912,-0.3829810802102089,-0.1063218787312507,0.0652089491486549,-0.3796939551830292,walking
1761225800512377900,0.137430813941732,0.2445645431667566,-0.2793231373369693,-0.0349297188222408,0.0394644364714622,-0.3600422143936157,walking
1761225800522390800,0.045055677909404,0.2685024681150913,-0.0984989526748657,0.036777701228857,-0.0069012390449643,-0.3417812883853912,walking
1761225800532404000,0.0523489036574959,0.3159931180864572,0.1188525893956422,0.1088835895061492,-0.0894038379192352,-0.3258172273635864,walking
1761225800542417700,0.0974455711644142,0.2922515924930572,0.3144073101997375,0.1681319773197174,-0.1865018755197525,-0.3052975237369537,walking
1761225800552430800,0.1882931688359007,0.3060778732717037,0.4053185842245816,0.2203938513994217,-0.2647375464439392,-0.2810645997524261,walking
1761225800562443500,0.2330722582936286,0.3539905480474233,0.4001712844640016,0.2639349102973938,-0.3023898601531982,-0.2477788478136062,walking
1761225800572457200,0.2638632640071213,0.4415741389542817,0.417830275273323,0.2928185164928436,-0.3187432587146759,-0.2041408121585846,walking
1761225800582470400,0.2617990249536931,0.508560932034254,0.5022364051878452,0.3037465214729309,-0.322210431098938,-0.1565203070640564,walking
1761225800592483600,0.1880512498388066,0.525787961167097,0.619390958493948,0.2958686351776123,-0.3236496150493622,-0.1306540817022323,walking
1761225800602496500,0.039083215903677,0.4370259741306305,0.8004898684442043,0.2514059245586395,-0.3425986170768738,-0.1148119270801544,walking
1761225800612510500,-0.0989244480779394,0.347251010659337,0.9476344863444566,0.1899497210979461,-0.3707138895988464,-0.1107474118471145,walking
1761225800622523400,-0.2234572020018473,0.3096247520983219,0.9756582193017004,0.1131036132574081,-0.3902888298034668,-0.105132482945919,walking
1761225800632536300,-0.3350695379456505,0.294454655495286,0.8645259950250387,0.0373486615717411,-0.3752819001674652,-0.103565476834774,walking
1761225800642550500,-0.4204777575748041,0.3014116350263357,0.644119157037139,-0.0281738881021738,-0.3248482942581177,-0.1071647405624389,walking
1761225800652563500,-0.5177857834320515,0.3373860347270965,0.3112327718168496,-0.0644959434866905,-0.2374582588672638,-0.1154535636305809,walking
1761225800662576400,-0.6028235988462344,0.3589437865406275,0.0552238745719194,-0.0796553194522857,-0.146883025765419,-0.1380804628133773,walking
1761225800672589300,-0.6220579857461154,0.3823158942997455,-0.0307943667143583,-0.0758691057562828,-0.0878814905881881,-0.1544298678636551,walking
1761225800682603300,-0.5659102377949282,0.4361696495622396,-0.1278559800624847,-0.0574821829795837,-0.040497601032257,-0.1604464650154113,walking
1761225800692616400,-0.4198405921824276,0.4610293655306101,-0.1516869375050067,-0.0313800126314163,-0.0089655071496963,-0.1477221548557281,walking
1761225800702629400,-0.2874440460808575,0.4777466915756463,-0.050204000583291,-0.0092676328495144,-0.0181344710290431,-0.1230942457914352,walking
1761225800712643300,-0.1442505769591778,0.4913999538749456,0.1187333469301462,-0.0010320735163986,-0.0500497929751873,-0.08192790299654,walking
1761225800722656500,-0.0670735215153545,0.4054910181820392,0.2965910830020904,-0.0049271550960838,-0.0990969166159629,-0.0444946959614753,walking
1761225800732669400,-0.0963778688676655,0.243228326126933,0.3607850304931402,-0.0148138748481869,-0.1288979649543762,-0.0189906693994998,walking
1761225800742682400,-0.0974015493595972,0.1643044270157813,0.4318406804472208,-0.043174922466278,-0.1434241980314254,0.0043455003760755,walking
1761225800752696600,-0.1180360853809863,0.148094465970993,0.5394646043419837,-0.0809657126665115,-0.1430537402629852,0.0309542063623666,walking
1761225800762709500,-0.1113923365175724,0.1371966398596763,0.5234416903018951,-0.1249883770942688,-0.1091599836945533,0.068584106862545,walking
1761225800772722400,-0.0959189461190253,0.1475228035628795,0.4743839371442794,-0.1567771881818771,-0.0726850628852844,0.1090849339962005,walking
1761225800782735400,-0.0793094643626362,0.1898585549890994,0.4782990647614002,-0.1788309216499328,-0.0413725525140762,0.1598490178585052,walking
1761225800792749300,-0.0756844057332724,0.2118412542164325,0.4309083680331707,-0.1791840642690658,-0.0102178296074271,0.2164451777935028,walking
1761225800802762500,-0.0744721073340624,0.1428729319304227,0.4004220443546771,-0.1616003066301345,0.0214201901108026,0.2711695730686188,walking
1761225800812775400,-0.1331772481504827,-0.0107692312955856,0.4223743484437465,-0.1118924096226692,0.0058494857512414,0.3058795928955078,walking
1761225800822789400,-0.1939831606384366,-0.1994195795387029,0.4505547332674264,-0.0500305444002151,-0.0363469794392585,0.3290216326713562,walking
1761225800832802300,-0.199416145472601,-0.3460632621794939,0.5286404279887676,0.015915447846055,-0.1067875921726226,0.3329135775566101,walking
1761225800842815500,-0.297819528818503,-0.5156061743706465,0.6422270596802234,0.0757143124938011,-0.1740532666444778,0.3317975401878357,walking
1761225800852829400,-0.3358753379032015,-0.6174006614595652,0.6184715055614709,0.1211864575743675,-0.2038497775793075,0.3290558159351349,walking
1761225800862842400,-0.3583418020594865,-0.711766459852457,0.6643278323292732,0.1422556787729263,-0.1965913027524948,0.3166817724704742,walking
1761225800872855600,-0.3890611307762563,-0.8389251053005456,0.8201485086381435,0.1413211673498153,-0.1905270218849182,0.2913194298744201,walking
1761225800882868500,-0.4060474099557846,-0.9069283819466828,0.9375900621920824,0.1061886921525001,-0.1615075469017028,0.2741648256778717,walking
1761225800892882400,-0.4243658145219087,-0.9451689730137586,1.0012690458983182,0.0450401157140731,-0.1302390992641449,0.2611486315727234,walking
1761225800902895400,-0.4892345925346016,-0.9314964214920995,1.0599059437841176,-0.0359728224575519,-0.105816014111042,0.2495990991592407,walking
1761225800912908300,-0.5784159740269184,-0.901387114432454,1.0262667090326547,-0.1167294532060623,-0.0973492935299873,0.2360715717077255,walking
1761225800922921500,-0.6433551138620823,-0.8364145837843417,0.9018038785398006,-0.1872490346431732,-0.096124954521656,0.2170983552932739,walking
1761225800932935400,-0.7329617350291461,-0.7701976060330867,0.6816606599241495,-0.241193488240242,-0.0993849262595176,0.2001734226942062,walking
1761225800942948400,-0.8660727130103856,-0.6827940478682517,0.3703255967766046,-0.2688071727752685,-0.0963661223649978,0.1830841153860092,walking
1761225800952961500,-0.9896621947348118,-0.5803869818389416,0.06359656611979,-0.2812952697277069,-0.0928552746772766,0.1666889041662216,walking
1761225800962975500,-1.0760495615944266,-0.5090624518156052,-0.2441279053151607,-0.2647377252578735,-0.0682158917188644,0.1454250514507293,walking
1761225800972988400,-1.1235761596620082,-0.3887438815206289,-0.5730886415243148,-0.2292519360780716,-0.0026869513094425,0.1352453827857971,walking
1761225800983001300,-1.122357577652484,-0.2394692658543586,-0.79029639120996,-0.1660735458135604,0.0696856155991554,0.1376858800649643,walking
1761225800993014300,-1.120508881045878,-0.0825385824769735,-1.1028630419790744,-0.0604344718158245,0.1727787256240844,0.1559945791959762,walking
1761225801003028500,-1.136311503398791,0.0804524238526821,-1.3078385020792485,0.0798842161893844,0.2973889410495758,0.1750776320695877,walking
1761225801013041400,-1.1440906129676849,0.1306201840788126,-1.1155354765474796,0.2117588967084884,0.3778190612792969,0.1825581938028335,walking
1761225801023054300,-1.0891648445595057,0.0160644150942564,-0.7004793421626091,0.3195816874504089,0.4191344976425171,0.1871907263994217,walking
1761225801033068500,-0.9287016762070356,-0.1564227338552475,-0.2565864048719406,0.4015803933143616,0.4336111843585968,0.1929287761449813,walking
1761225801043081500,-0.7883676881697028,-0.3314303411930799,0.2234580422520637,0.449683129787445,0.4114151000976562,0.2001539468765258,walking
1761225801053094400,-0.7402138981144875,-0.5108855755895376,0.6600456249654293,0.4584587812423706,0.3769644498825073,0.1928907036781311,walking
1761225801063107600,-0.7373975255195051,-0.6359118851840496,0.9769885911226271,0.4331373274326324,0.344245970249176,0.1708648800849914,walking
1761225801073121300,-0.7673575603015721,-0.7383458392202854,1.1590291658371683,0.3772892355918884,0.3446374535560608,0.14687380194664,walking
1761225801083134500,-0.7708466445263474,-0.7692080104738473,1.190121054193377,0.3082646429538727,0.3562059104442596,0.1113748326897621,walking
1761225801093147400,-0.8020509072158485,-0.7285901688814163,1.1900129176437857,0.2259404957294464,0.3874029815196991,0.0795007869601249,walking
1761225801103161300,-0.7348107238966971,-0.6823077256560325,1.09408703032732,0.1512316316366195,0.4349344074726105,0.0636038929224014,walking
1761225801113174500,-0.5962262098751961,-0.6105149935990571,0.8566764505684376,0.0981748104095459,0.5120757818222046,0.0608669593930244,walking
1761225801123187200,-0.396609719524905,-0.5520850164622068,0.6095201373428106,0.0531572066247463,0.605779767036438,0.0731706395745277,walking
1761225801133200400,-0.2478025021746754,-0.5307072973906993,0.3745470138639211,0.039100244641304,0.7052049040794373,0.0965262949466705,walking
1761225801143214600,-0.0323329744584858,-0.4784954641163348,0.2432908699691295,0.0533647239208221,0.7799659371376038,0.1360095888376236,walking
1761225801153227300,0.2016926025046035,-0.4811480244517326,0.3909901991426944,0.0744231343269348,0.7454497814178467,0.1801416277885437,walking
1761225801163240400,0.3781673597855493,-0.5839011274397373,0.6556085193008184,0.0864187553524971,0.6079920530319214,0.2217100411653518,walking
1761225801173254400,0.4571379110500216,-0.667890493246913,0.8219628645837307,0.0935496389865875,0.4042300879955292,0.2504585981369018,walking
1761225801183267300,0.3591572466282173,-0.5926473284751177,0.7962696204006672,0.0993681102991104,0.1698780655860901,0.2676525115966797,walking
1761225801193280500,0.1478595977691933,-0.4137567422240972,0.5850912140071391,0.1037301048636436,-0.0329235196113586,0.2799712121486664,walking
1761225801203293400,-0.1702272411935031,-0.1667851379156112,-0.0149736972481012,0.114068791270256,-0.1077514737844467,0.2835645377635956,walking
1761225801213307400,-0.5851053155977278,0.0490028080999851,-0.6813473561912775,0.1257291734218597,-0.0061912927776575,0.2720522284507751,walking
1761225801223320600,-0.8373429506756365,0.2389011105775833,-1.148610647675395,0.1381763666868209,0.2138678282499313,0.2476659119129181,walking
1761225801233333200,-0.9257461143370718,0.2525561264425516,-1.4223100999116898,0.1452760845422744,0.492499440908432,0.2187263965606689,walking
1761225801243347500,-0.8793668596737086,0.2049170079112053,-1.4396686464697122,0.1608167439699173,0.738762378692627,0.1855246275663375,walking
1761225801253360400,-0.7717208700776099,0.0707002606451511,-1.0345885471761227,0.1637161374092102,0.8524945378303528,0.1370092779397964,walking
1761225801263373300,-0.6503495758593082,-0.1628133116751909,-0.393188001447916,0.1428643316030502,0.8182156085968018,0.0710212588310241,walking
1761225801273386500,-0.4696329432249069,-0.2968956189066171,0.0808142429023981,0.1075833141803741,0.7333070635795593,0.0045671379193663,walking
1761225801283400200,-0.2659880741413682,-0.2592389652073383,0.2980067950189113,0.0748859941959381,0.611230731010437,-0.0396650247275829,walking
1761225801293413400,-0.0990475264683365,-0.1094108073115348,0.3716898708671331,0.0409378819167614,0.4833012819290161,-0.0649914145469665,walking
1761225801303426600,0.0735866114701144,0.0453320106327533,0.3364987304985523,0.0075534060597419,0.3734643757343292,-0.0790175050497055,walking
1761225801313440300,0.1890260679540224,0.2217909858226776,0.15680968734622,-0.0130504053086042,0.3096707463264465,-0.083496406674385,walking
1761225801323453400,0.2722004458501935,0.4051555026173591,-0.1299468148618936,-0.0218125097453594,0.3066568672657013,-0.0686862021684646,walking
1761225801333466400,0.2878956257732585,0.630799072214961,-0.4267325436532497,-0.0150664569810032,0.3617542088031769,-0.044030662626028,walking
1761225801343479300,0.3041547597220167,0.7871943335413932,-0.6168418585330248,0.0026048535946756,0.4548578262329101,-0.0071674385108053,walking
1761225801353493500,0.3493014403831213,0.8026292185604572,-0.647653176382184,0.0206467043608427,0.5593205690383911,0.023522563278675,walking
1761225801363506400,0.3640740255685523,0.6999146940171718,-0.4981301389127969,0.0322646498680114,0.6345146894454956,0.0406472347676754,walking
1761225801373519400,0.4351286526093259,0.6602285803169011,-0.1796732610613107,0.0535097494721412,0.6360702514648438,0.0529923178255558,walking
1761225801383533600,0.5670822407163679,0.5701999343454838,0.1765636046081781,0.074663445353508,0.5669739246368408,0.0564775243401527,walking
1761225801393546200,0.7490135829027742,0.4626251102894544,0.413438177794218,0.101065494120121,0.4488230347633362,0.0569813922047615,walking
1761225801403559400,0.935412060565874,0.3909551278293132,0.5060007261574268,0.1308845281600952,0.3078358769416809,0.056210733950138,walking
1761225801413572400,1.0721950050581246,0.3907008608072996,0.5567138453066349,0.1623700112104416,0.1686116755008697,0.0665424689650535,walking
1761225801423586300,1.1824014927919952,0.4306862497150898,0.5573305159002542,0.1773280948400497,0.0508893094956874,0.086674116551876,walking
1761225801433599500,1.1796774015903473,0.3767641053915023,0.5582154820412397,0.1662498861551284,-0.0246661640703678,0.1043665632605552,walking
1761225801443612400,1.1505093939688056,0.3072404873102903,0.5007639945477247,0.1243367940187454,-0.0464766547083854,0.118912748992443,walking
1761225801453626400,1.011938835407421,0.2563613639444113,0.3745961137026548,0.0725452303886413,-0.0178079921752214,0.1327151209115982,walking
1761225801463639600,0.8040105168510228,0.2322223634660243,0.1949567549109458,0.0164283905178308,0.05337930098176,0.1249508112668991,walking
1761225801473652500,0.6017625089533627,0.1801087298691272,0.0196539640188217,-0.0335428975522518,0.1353809535503387,0.0994310677051544,walking
1761225801483665400,0.4189384922435507,0.1875911945790052,-0.1257949558794498,-0.0711353048682212,0.2213113456964492,0.0631095916032791,walking
1761225801493679600,0.2971864185467362,0.1558101549148559,-0.1865033993422985,-0.0872205272316932,0.2763242423534393,0.0236013308167457,walking
1761225801503692300,0.2521652456951327,0.1232896950602531,-0.1214227321445941,-0.0878022536635398,0.2667872309684753,-0.0242977365851402,walking
1761225801513705500,0.3142241721851751,0.1076782844305038,-0.0691267277181148,-0.0679233521223068,0.2350990772247314,-0.064207337796688,walking
1761225801523718400,0.4314843412902206,0.1558843891948461,-0.115949269169569,-0.0328015312552452,0.218313992023468,-0.0869629010558128,walking
1761225801533732400,0.5745389133978634,0.2526256845474243,-0.1470335587412118,0.002268572570756,0.212256371974945,-0.0869032442569732,walking
1761225801543745500,0.7165042289640754,0.3802414261132478,-0.0604395633935928,0.0352478101849556,0.2181173712015152,-0.0570467188954353,walking
1761225801553758500,0.8424933191761373,0.4613964452773332,0.060884969073534,0.0578175671398639,0.2091582268476486,-0.0197552740573883,walking
1761225801563775000,0.9078275958087296,0.4421498930156231,0.2286877595990896,0.0692497119307518,0.1855508983135223,0.0202201046049594,walking
1761225801573788200,0.8953573327489197,0.3345359059929848,0.4277285689532756,0.073370024561882,0.1421661972999572,0.047906968742609,walking
1761225801583801000,0.7696751895941794,0.1877414167046547,0.5921966620981693,0.0545695759356021,0.0900165066123008,0.0614982545375824,walking
1761225801593814000,0.6450706125430763,0.0815747058808803,0.6943278337955474,0.0320410951972007,0.0450256019830703,0.0611866638064384,walking
1761225801603828200,0.5535953479599207,0.0499140777260065,0.7690729859173298,0.0061491215601563,0.0153818493708968,0.0623870305716991,walking
1761225801613841200,0.3977736852703615,0.0108744452357292,0.8387906652659177,-0.0313053093850612,-0.0304474234580993,0.05267820879817,walking
1761225801623854000,0.2804121929490007,-0.0455938764393329,0.8200099769502878,-0.0662775635719299,-0.0481493696570396,0.0375915579497814,walking
1761225801633868300,0.2623561473798007,-0.0599421352654695,0.7198118191421031,-0.0885040387511253,-0.0450212210416793,0.0264017526060342,walking
1761225801643881000,0.2606739847128279,-0.0706961689919233,0.6769459063619375,-0.1139023229479789,-0.0571479499340057,0.0193398017436265,walking
1761225801653894100,0.2226393462803214,-0.1503039587140083,0.6012912381798029,-0.1361034959554672,-0.0589085631072521,0.0155895398929715,walking
1761225801663907000,0.1970679749112576,-0.1806149258255958,0.4417231920361518,-0.1514827460050583,-0.035563126206398,0.018670380115509,walking
1761225801673921000,0.1377332674870267,-0.2222007356673478,0.2994336129516363,-0.1436828821897506,-0.0178115591406822,0.0145872216671705,walking
1761225801683934200,0.0502360031567513,-0.2806897495150566,0.1524479850053787,-0.1215090677142143,0.0101099852472543,-0.0007972989697009,walking
1761225801693947100,-0.006545001196675,-0.2849257796496153,0.0668067603379488,-0.0784694552421569,0.0261390190571546,-0.0224932730197906,walking
1761225801703961000,0.0038205081362277,-0.2969517330080271,0.1523971316009759,-0.0422222726047039,0.0180137902498245,-0.0477236025035381,walking
1761225801713974000,0.0873561205602251,-0.3723889590471982,0.288674903050065,-0.0105279916897416,-0.0171407349407672,-0.0620785765349864,walking
1761225801723987200,0.2164913998435251,-0.4064619090408086,0.3873012814968824,0.0245931670069694,-0.0715098604559898,-0.0670585036277771,walking
1761225801734000000,0.3307034882232547,-0.3614595687538385,0.5417652824997902,0.0577897354960441,-0.16705022752285,-0.0576013475656509,walking
1761225801744014000,0.4325892337922006,-0.3083972561299801,0.668960752826929,0.0769319534301757,-0.2831049561500549,-0.0342044904828071,walking
1761225801754027000,0.4862845836225897,-0.2811754872053861,0.7410112590372562,0.0830985009670257,-0.4069555401802063,-0.0063997572287917,walking
1761225801764040200,0.4420020820427686,-0.2880909656822681,0.6646066492706537,0.0817531272768974,-0.5123910903930664,0.0251060482114553,walking
1761225801774054100,0.3111819914776831,-0.3434679849892854,0.441004814633727,0.078299269080162,-0.5761343836784363,0.0416735745966434,walking
1761225801784067000,0.0684882745509501,-0.3457686631470918,0.1742822156727314,0.0774376094341278,-0.5981794595718384,0.0367284566164016,walking
1761225801794080000,-0.1697290824130177,-0.3335580008715391,0.0128998135834932,0.0783534720540046,-0.5996830463409424,0.0171811208128929,walking
1761225801804093200,-0.3032914208909496,-0.3832090437471866,-0.1467652631938457,0.083078920841217,-0.5973291397094727,-0.0143411951139569,walking
1761225801814107100,-0.3726800509482622,-0.4527051892995834,-0.3865232828617095,0.0997625589370727,-0.5886075496673584,-0.0488280653953552,walking
1761225801824120000,-0.4397212410965934,-0.4633101699441671,-0.660574032753706,0.1480709463357925,-0.5821920037269592,-0.0886646434664726,walking
1761225801834133200,-0.4866663860144093,-0.426966936931014,-0.8432523208498954,0.2136819213628769,-0.5640857219696045,-0.134388193488121,walking
1761225801844146000,-0.4721899342313408,-0.4061281470417976,-0.8500999947875738,0.276408851146698,-0.5700573325157166,-0.1724474132061004,walking
1761225801854160100,-0.3475540852591395,-0.440829458066821,-0.605981441822648,0.3277881443500519,-0.6274439096450806,-0.1969471573829651,walking
1761225801864173000,-0.2408060491497628,-0.533132478711009,-0.3785959969937801,0.3517481684684753,-0.7123836874961853,-0.2100179344415664,walking
1761225801874186000,-0.2801162422097288,-0.5863239706724882,-0.2309843461036682,0.3551996350288391,-0.772635281085968,-0.234319269657135,walking
1761225801884200200,-0.4876981767475605,-0.6852794349431991,-0.1594108097553253,0.3273093402385711,-0.7790616750717163,-0.2895948588848114,walking
1761225801894213000,-0.634662323514372,-0.7301222007542848,-0.0593044218838214,0.2778235375881195,-0.7533219456672668,-0.3600567877292633,walking
1761225801904226000,-0.7302054951235651,-0.6756061821907758,0.0964379284918308,0.2069836556911468,-0.7188670039176941,-0.4236650764942169,walking
1761225801914239200,-0.8070576294619589,-0.7097527819424867,0.3365501684248447,0.100594624876976,-0.6849953532218933,-0.4994120597839355,walking
1761225801924253200,-0.8227247888669371,-0.7434586521893739,0.5745540379017591,-0.0294574759900569,-0.6885184645652771,-0.5792940855026245,walking
1761225801934266000,-0.7206137831747531,-0.6923118177980184,0.6287748729109763,-0.1587339788675308,-0.6880971193313599,-0.648362398147583,walking
1761225801944279300,-0.5691578414140269,-0.5514753601312637,0.4120236348211765,-0.27993905544281,-0.6441794633865356,-0.6967261433601379,walking
1761225801954293000,-0.4799065364906564,-0.2195855847328901,0.1204652852892875,-0.3830696940422058,-0.5460774302482605,-0.711063802242279,walking
1761225801964306200,-0.3869238264866173,0.1156219369113445,-0.1812345190286636,-0.4519019722938537,-0.4289602041244507,-0.6881954073905945,walking
1761225801974319000,-0.213900744029507,0.3785913208186626,-0.3849965116858482,-0.4732677042484283,-0.3478666841983795,-0.6461864113807678,walking
1761225801984332000,-0.068988524823822,0.49118660338521,-0.4848626610606908,-0.4430406093597412,-0.324906438589096,-0.5946109890937805,walking
1761225801994346200,0.0105148181430995,0.524885459369421,-0.5254875169157982,-0.3705706894397735,-0.3406121730804443,-0.5495290160179138,walking
1761225802004359000,0.0055910980053246,0.4883966804057359,-0.534521887242794,-0.2634669244289398,-0.392186552286148,-0.5140762329101562,walking
1761225802014372000,0.0494098545309156,0.4685515777289867,-0.5112310280263423,-0.1376760005950927,-0.4615752100944519,-0.4852160811424255,walking
1761225802024386000,0.1156514552667737,0.5071826294183731,-0.5164905559897423,-0.0055427076295018,-0.5240299701690674,-0.4498650133609772,walking
1761225802034399000,0.1158749983569607,0.5623293471008539,-0.5550877054095268,0.1139069870114326,-0.5367060899734497,-0.4028884768486023,walking
1761225802044412200,0.0930035335963591,0.6008037469238042,-0.5325128855079412,0.2196501195430755,-0.5111045837402344,-0.3558610677719116,walking
1761225802054425000,0.0639196605943143,0.5631885942786932,-0.3473082938045263,0.296388566493988,-0.4729042053222656,-0.3240914046764374,walking
1761225802064439000,-0.0226679415451362,0.4172673806935548,-0.0753957249850034,0.3454636931419372,-0.4343581795692444,-0.3157718181610107,walking
1761225802074452200,-0.0847156707877293,0.252732652053237,0.249673849004507,0.3628882169723511,-0.3950467407703399,-0.3305984437465668,walking
1761225802084465200,-0.1299038890356197,0.1173521217048168,0.6141244162678718,0.3485501706600189,-0.3691987693309784,-0.3611612021923065,walking
1761225802094478000,-0.1196202858325093,0.0298123699396848,0.9220353501856328,0.2957769930362701,-0.3554209172725677,-0.3941234052181244,walking
1761225802104492300,-0.0770307423083111,0.005206920993328,1.2080512631595135,0.19757941365242,-0.3573621213436126,-0.4283424317836761,walking
1761225802114505000,-0.0144956679401919,0.0023994623571634,1.4317027821570634,0.0660847797989845,-0.3855229318141937,-0.4478341042995453,walking
1761225802124518100,0.1036031439460813,0.073809332576394,1.5005553691089153,-0.0744394287467002,-0.4037217199802398,-0.4364050328731537,walking
1761225802134532000,0.2405331687588244,0.186882754048705,1.311757721349597,-0.2012639492750167,-0.3919326961040497,-0.4083712697029114,walking
1761225802144545000,0.2303141186919063,0.3277922769516706,0.9428378997176884,-0.3037837147712707,-0.3445059955120086,-0.3645429909229278,walking
1761225802154558200,0.1432950298000126,0.5124567704290152,0.5850812771350145,-0.3789122998714447,-0.2878879904747009,-0.3149027526378631,walking
1761225802164571100,0.1034738550106063,0.6689958241403102,0.323244696649909,-0.4222387075424194,-0.249548926949501,-0.2663134038448334,walking
1761225802174585000,0.0967393225912004,0.7626637033969164,0.0799678552061319,-0.4258523285388946,-0.2375020980834961,-0.2014507949352264,walking
1761225802184598300,0.1332951023764908,0.7667582792341708,-0.212588273191452,-0.3821488916873932,-0.2308883965015411,-0.1225663423538208,walking
1761225802194611200,0.0909221607450395,0.7038268990248441,-0.5504068541169166,-0.2986100614070892,-0.2108837962150573,-0.0522644817829132,walking
1761225802204625200,-0.0510974788242951,0.7316676766306162,-0.7351584413558244,-0.186716228723526,-0.1929791718721389,0.0145285241305828,walking
1761225802214638300,-0.1574994231760501,0.7231447629570961,-0.7237772156417369,-0.0606067553162574,-0.169308990240097,0.0616507604718208,walking
1761225802224651000,-0.2312546874776482,0.599485650062561,-0.5626210235238075,0.0384174101054668,-0.139310672879219,0.0991505682468414,walking
1761225802234664200,-0.2529930200224742,0.390000603583455,-0.2113841580986976,0.1049290597438812,-0.1003038883209228,0.1200981959700584,walking
1761225802244678100,-0.2015134830780327,0.2164899568051099,0.2464578095674514,0.1260570436716079,-0.060980025678873,0.1393705159425735,walking
1761225802254691000,-0.1680869412291795,0.0565899022281169,0.7305266899019479,0.1047030314803123,-0.0297818928956985,0.1531156301498413,walking
1761225802264704300,-0.1082854565434157,-0.1165887361168861,1.1802063939005136,0.0531003102660179,0.0001538770738989,0.1605953127145767,walking
1761225802274717200,0.0200349992256611,-0.2500672322362661,1.4780793334066866,-0.0069467825815081,0.0039558061398565,0.1703611314296722,walking
1761225802284731100,0.051088089941442,-0.3851338743299246,1.5584709669828414,-0.0548623017966747,0.0095628425478935,0.1862884759902954,walking
1761225802294744000,0.1009321711711585,-0.3718547060400247,1.5828338393449783,-0.0945758894085884,0.0194775238633155,0.196424201130867,walking
1761225802304757000,0.0688039985697716,-0.4475684109330177,1.733024985334277,-0.1575101464986801,-0.0200298838317394,0.1935398131608963,walking
1761225802314771200,0.0100569913730025,-0.582532761695981,1.7461346422761677,-0.2093501687049865,-0.0683585405349731,0.1858677864074707,walking
1761225802324784000,0.0329236338280141,-0.6209633223772049,1.552387263154983,-0.2542403936386108,-0.0775744318962097,0.1735623329877853,walking
1761225802334797000,-0.0378187854584306,-0.620567601057887,1.41609897031188,-0.3051658868789673,-0.0930135697126388,0.1545420438051223,walking
1761225802344810000,-0.0753606536716222,-0.5275023638695479,1.2790659965813158,-0.360994428396225,-0.1112365797162056,0.1470773518085479,walking
1761225802354824200,-0.0476495668601244,-0.3968365870833397,1.0008213021308183,-0.3941153585910797,-0.1090085804462432,0.1576522290706634,walking
1761225802364837000,-0.0053958676941692,-0.2636100198984146,0.6114052204370498,-0.3986256718635559,-0.0831944644451141,0.1880273520946502,walking
1761225802374850000,-0.0336071591127663,-0.1090624322652816,0.2375999648511409,-0.3815337717533111,-0.0472993142902851,0.2303846627473831,walking
1761225802384864000,-0.1251155222479253,-0.0202770643532276,-0.1108048920184373,-0.3406215608119964,0.002860945649445,0.273129254579544,walking
1761225802394877200,-0.2582213856626302,-0.0343102658808231,-0.388581384435296,-0.2744103074073791,0.0641679763793945,0.2960044741630554,walking
1761225802404890000,-0.3849544261097908,-0.1007458548188209,-0.4860755439817905,-0.2189934253692627,0.1097852885723114,0.3103006482124328,walking
1761225802414903000,-0.4867836191859096,-0.1842488984137773,-0.504381600522995,-0.1617213487625122,0.1298234462738037,0.3095443248748779,walking
1761225802424917200,-0.5283320196267217,-0.2479372344702482,-0.5023901344448328,-0.1127864941954612,0.1496821343898773,0.3135249614715576,walking
1761225802434930200,-0.5416852760661393,-0.2870306429743766,-0.5172551106214524,-0.0674288645386695,0.1620620936155319,0.3201000392436981,walking
1761225802444943000,-0.5363168809007853,-0.2485509824544191,-0.5004547824680805,-0.0149395763874053,0.1668411642313003,0.3294017016887665,walking
1761225802454956000,-0.5147488268889486,-0.2549281162708998,-0.4777279868751764,0.0273767225444316,0.1693503856658935,0.3407915234565735,walking
1761225802464970000,-0.5581858175553381,-0.2312561487823724,-0.4148305089354515,0.0547636449337005,0.1823958307504654,0.3484847545623779,walking
1761225802474983200,-0.5687902867432684,-0.2114502090722322,-0.3295417509675026,0.0687990337610244,0.1878856718540191,0.3661026358604431,walking
1761225802484996000,-0.6023527299314737,-0.1810644231587648,-0.3193769153058529,0.0874906182289123,0.1773379445075988,0.3919760286808014,walking
1761225802495010000,-0.6246200913190841,-0.1874380498439073,-0.3884668181449174,0.1163126826286315,0.1755160838365554,0.4125175178050995,walking
1761225802505023000,-0.705679979545623,-0.2499585111647844,-0.4872153616666793,0.1438855826854705,0.1987426280975341,0.4194775223731994,walking
1761225802515036200,-0.7945218999505043,-0.27553602001369,-0.5259533808618784,0.1743382960557937,0.2390554398298263,0.4223596155643463,walking
1761225802525049000,-0.8456289868533611,-0.2847282112509012,-0.5311795910775661,0.2070408314466476,0.2813892066478729,0.4278447329998016,walking
1761225802535063000,-0.9348854063432664,-0.3074018153518438,-0.729500853985548,0.2703700065612793,0.3752816319465637,0.4249144792556762,walking
1761225802545076200,-1.0261258392572403,-0.3352040145128965,-0.8913736699402331,0.3360346555709839,0.5126901268959045,0.393946498632431,walking
1761225802555089200,-1.1165338399350642,-0.345861602127552,-0.7190081015437841,0.3754318654537201,0.6430856585502625,0.3535559177398681,walking
1761225802565099500,-1.0900625971168278,-0.364517202758789,-0.3149088299810886,0.3862829804420471,0.7399803996086121,0.3181926906108856,walking
1761225802575113500,-0.8287905186466872,-0.4650426928251981,0.0867138223350048,0.3829329907894134,0.7979097366333008,0.2907682657241821,walking
1761225802585126400,-0.4941265292946249,-0.5735603506892919,0.4363175336003303,0.3599297702312469,0.8092432618141174,0.2884717881679535,walking
1761225802595139600,-0.0989963077377528,-0.6138678111582994,0.7026794825553894,0.3358233571052551,0.7943628430366516,0.3220712840557098,walking
1761225802605153500,0.2015348181270062,-0.6720160487443209,0.895137406387925,0.3050996363162994,0.753776490688324,0.3770709037780761,walking
1761225802615166500,0.3664535776488483,-0.7615531118065119,1.1095938115388155,0.257948637008667,0.6614543199539185,0.4369041323661804,walking
1761225802625179600,0.3376189667001366,-0.9379764311611652,1.3309189334154128,0.1913855671882629,0.527778685092926,0.4648812115192413,walking
1761225802635192300,0.1870542381580918,-1.1173989323318003,1.4921569585978984,0.1064832061529159,0.3591590523719787,0.4630098044872284,walking
1761225802645206500,-0.036176863470301,-1.2982757239639755,1.4196376658320429,0.0106842750683426,0.1998023390769958,0.4431986510753631,walking
1761225802655219500,-0.3737100515831261,-1.3221359075009822,0.9396493328094482,-0.0595922842621803,0.0705966800451278,0.3725572228431701,walking
1761225802665232400,-0.8976838760003447,-1.124235500353575,0.2290004788100719,-0.0798499062657356,0.0437149032950401,0.2716237604618072,walking
1761225802675246600,-1.188762040799856,-0.7423211725920439,-0.535726586857438,-0.050514917820692,0.0824814662337303,0.1742937564849853,walking
1761225802685259500,-1.210393953828141,-0.2776671868234873,-1.074884901729226,0.0159783158451318,0.1618926078081131,0.0958939045667648,walking
1761225802695272400,-1.0073781764283776,0.1136725564092397,-1.389874980252981,0.1049111187458038,0.2581842243671417,0.0532055646181106,walking
1761225802705285600,-0.7610989382982254,0.4543307446748018,-1.403316061106324,0.2015921026468277,0.3884190917015075,0.0354350879788398,walking
1761225802715299600,-0.5446302800094709,0.7334224113434553,-1.315564127895236,0.3001242578029632,0.5396680235862732,0.0404423661530017,walking
1761225802725312500,-0.3992441962143406,0.9710592010736464,-1.1337795737683771,0.4020389318466186,0.6949269771575928,0.0588408596813678,walking
1761225802735325700,-0.3025378991099074,1.1563432877540587,-0.786618579480052,0.496232807636261,0.8316336870193481,0.0689747184514999,walking
1761225802745338400,-0.2000800162088125,1.1913725155591963,-0.1618552802979946,0.5527528524398804,0.8740347027778625,0.0706901401281356,walking
1761225802755352600,0.0234316193940117,1.1072422799766064,0.5607260035574436,0.579901933670044,0.7957974672317505,0.070174291729927,walking
1761225802765365500,0.4237429333832114,1.0566478187710049,1.273398472338915,0.5706533193588257,0.6122808456420898,0.0809874683618545,walking
1761225802775378400,0.7511349589709192,0.9616542438685892,1.537758433821797,0.5520389080047607,0.431671679019928,0.1168354824185371,walking
1761225802785392600,0.8784955567318946,0.9049883537948132,1.2483271594464778,0.5434073805809021,0.3585705757141113,0.1561640501022339,walking
1761225802795405300,0.9494140632376076,0.9734189159423112,1.125489884328842,0.5187979340553284,0.3287232220172882,0.1891363859176635,walking
1761225802805418500,0.9973749610692262,0.9667635497063398,1.2676397626817226,0.4460234642028808,0.2704338431358337,0.2186538130044937,walking
1761225802815431700,1.1582065974079072,0.872009628778696,1.4157126013427972,0.3463029861450195,0.208572581410408,0.2653526365756988,walking
1761225802825445400,1.3425325065806508,0.7189297756105661,1.5368758057683705,0.2175478786230087,0.1165941506624221,0.3229817450046539,walking
1761225802835458600,1.297254856483638,0.564572742113471,1.617020186585188,0.0618496313691139,-0.0139342974871397,0.3611176609992981,walking
1761225802845471500,1.1330009906113148,0.4284942926287651,1.6224574092030524,-0.1244974359869957,-0.1807140707969665,0.3786464035511017,walking
1761225802855484400,1.0821636605605482,0.173411862578988,1.3645546610355377,-0.2896416485309601,-0.289086103439331,0.3876513242721557,walking
1761225802865498600,0.8302027235321701,0.080862758219242,0.8024918559163808,-0.42826709151268,-0.2909207344055176,0.38571897149086,walking
1761225802875511300,0.4250565367324277,0.1171329259961843,0.231723181772232,-0.5495567321777344,-0.2111654430627823,0.362212598323822,walking
1761225802885524500,0.0139290105007588,0.1004676223993301,-0.1943488521456718,-0.6480825543403625,-0.0780309066176414,0.3051725327968597,walking
1761225802895538700,-0.2754752297371626,0.0423351669043302,-0.429745753994584,-0.7272583246231079,0.0650418251752853,0.22591632604599,walking
1761225802905551400,-0.4374693705165758,-0.0839776753693819,-0.6476221967220306,-0.766933798789978,0.2136618196964264,0.1395559459924698,walking
1761225802915564500,-0.5465517495913431,-0.1963058314323425,-1.1397042876422403,-0.7227359414100647,0.3909090161323547,0.0554277524352073,walking
1761225802925577500,-0.5861231508707627,-0.1309106914579868,-1.4527917474150658,-0.614138662815094,0.5315300226211548,-0.0354348979890346,walking
1761225802935591400,-0.5272604448724538,-0.0941910263478755,-1.4333102173537016,-0.4601219594478607,0.5675370097160339,-0.1283283531665802,walking
1761225802945604600,-0.3591579772805794,-0.0836409907609224,-1.2580857523947953,-0.3003270030021667,0.5425268411636353,-0.2084517329931259,walking
1761225802955617500,-0.0933602928784675,-0.0791086080282926,-0.9150199184656144,-0.1421692967414856,0.4675061106681824,-0.2643488049507141,walking
1761225802965630500,0.2057931696912273,-0.1116314059704542,-0.4424485837012529,-0.0370791554450988,0.3558072745800018,-0.2855292856693268,walking
1761225802975644700,0.4937046871533617,-0.1157061080634593,0.0529524225085973,0.0198602937161922,0.2398396283388137,-0.2818338871002197,walking
1761225802985657300,0.6540268761325627,-0.1181447333872318,0.4240279608696699,0.0278576333075761,0.1542439758777618,-0.2538582980632782,walking
1761225802995670500,0.7211662294257432,-0.1236556057631969,0.6692384007245302,-0.0084958476945757,0.1044894680380821,-0.2226947695016861,walking
1761225803005684500,0.6951969447802752,-0.1443739841431379,0.8491834644645452,-0.0790194794535636,0.0736603289842605,-0.1902566999197006,walking
1761225803015697400,0.6024649581342936,-0.1800783347308635,0.9703753104627132,-0.1617867946624755,0.0511992275714874,-0.1668717414140701,walking
1761225803025710600,0.4648191862676292,-0.2756768897891044,0.911952347588539,-0.2414357811212539,0.0316176265478134,-0.151269644498825,walking
1761225803035723500,0.2665885607851669,-0.3214163121789694,0.7702741784006357,-0.3046610653400421,0.0290990732610225,-0.1514073312282562,walking
1761225803045737500,0.0877138022909406,-0.3251192583501339,0.5285691163182258,-0.3403486013412475,0.035620491951704,-0.1676681041717529,walking
1761225803055750700,-0.0249321099177235,-0.2804389896243811,0.2419710195422172,-0.3462238013744354,0.0593279488384723,-0.1757151186466217,walking
1761225803065763600,-0.096201653784234,-0.2186158629179,0.0504383938610553,-0.3255518078804016,0.0647096410393714,-0.1827206015586853,walking
1761225803075776500,-0.1055347787289414,-0.2294984914600849,-0.0271346751630306,-0.2906556129455566,0.0546407625079155,-0.188757449388504,walking
1761225803085790500,-0.0278800319039262,-0.2436807460695505,-0.1697474948525428,-0.2317473441362381,0.0491218753159046,-0.1877236515283584,walking
1761225803095803400,0.0306793734490056,-0.2445592824697494,-0.3113783177673817,-0.1503361165523529,0.0428890101611614,-0.182527020573616,walking
1761225803105816600,0.0486996695681009,-0.176138657194376,-0.2281412316322326,-0.067981906235218,0.0055385222658514,-0.1703969836235046,walking
1761225803115829500,0.1252669499499723,-0.1559071855485439,0.0326911402463913,-0.0052961553446948,-0.0649835839867591,-0.1628820747137069,walking
1761225803125843500,0.1847426732800901,-0.2154167746156454,0.3292325388878583,0.0328836850821971,-0.1661225259304046,-0.1530495434999466,walking
1761225803135856400,0.234824289592728,-0.3038222032994032,0.4020265569418668,0.056360512971878,-0.2482818514108657,-0.1410123258829116,walking
1761225803145869600,0.1979844139027409,-0.3224795574963092,0.1085147352546453,0.089665450155735,-0.2608772218227386,-0.1206201761960983,walking
1761225803155883500,0.0388551519019994,-0.199343007171154,-0.1014203930795192,0.1133840978145599,-0.2586771845817566,-0.1182102859020233,walking
1761225803165896400,-0.0576981237649219,-0.1374941615015268,-0.0217804546535015,0.1280392259359359,-0.2643497288227081,-0.1325064450502395,walking
1761225803175909600,0.0314334158198558,-0.1356833126872778,-0.0070370590299367,0.1456709504127502,-0.2940085828304291,-0.1300563365221023,walking
1761225803185922300,0.1033094673622865,-0.0340589214682579,0.0861374837517738,0.1500366032123565,-0.3262986242771148,-0.1180726811289787,walking
1761225803195936500,0.2224537240477278,-0.1173696573615074,0.0817728588014841,0.1747137010097503,-0.3699033558368683,-0.1062090918421745,walking
1761225803205949400,0.2752532575495541,-0.1010620811611413,0.091232176542282,0.192391812801361,-0.4314844906330108,-0.09897231310606,walking
1761225803215962400,0.3041739941454492,-0.0863262843221426,0.2020072579443454,0.2019331306219101,-0.4982097148895263,-0.0939599722623825,walking
1761225803225976600,0.3678133582273498,-0.2300134552448987,0.2656307120710611,0.1744527518749237,-0.5636416077613831,-0.0946567058563232,walking
1761225803235989500,0.4024167253032326,-0.5067980140149593,0.3479524369269609,0.10628542304039,-0.6400365233421326,-0.1020816043019294,walking
1761225803246002400,0.3603496347505599,-0.7193190671890973,0.3520990352123975,-0.0021671303547918,-0.7321901917457581,-0.1174045205116272,walking
1761225803256015600,0.1929039505669847,-0.9248328719496728,0.062824412703514,-0.0965546146035194,-0.7859258651733398,-0.1619075387716293,walking
1761225803266029600,-0.02094747442808,-1.1264286264836787,-0.6129179630875587,-0.1549885123968124,-0.7850649356842041,-0.2294618785381317,walking
1761225803276042500,-0.3202373315274715,-1.111463697063923,-1.134600827023387,-0.178105816245079,-0.7924248576164246,-0.3271141350269317,walking
1761225803286055700,-0.6509194847017526,-0.9312211116820572,-1.3848504300892353,-0.1854654252529144,-0.8161498308181763,-0.4212695360183716,walking
1761225803296068400,-0.7714050821267068,-0.7617734765589237,-1.544986046987772,-0.1848401129245758,-0.8376237154006958,-0.5038400292396545,walking
1761225803306082600,-0.7086385370902717,-0.6057172379285096,-1.6523925287395715,-0.1711548268795013,-0.8363181948661804,-0.5522750020027161,walking
1761225803316095500,-0.6496457384388894,-0.4420364957690239,-1.6739222235023974,-0.1540101915597915,-0.7993183732032776,-0.5593640804290771,walking
1761225803326108400,-0.6255393981210887,-0.3354588660567998,-1.5791203717797997,-0.144914224743843,-0.6998411417007446,-0.5703185200691223,walking
1761225803336121600,-0.8476052553623914,-0.1344359429746866,-1.4369149638473986,-0.1418934017419815,-0.5703662037849426,-0.5916203856468201,walking
1761225803346135300,-0.8475733989194035,-0.0411404041618108,-1.2471698061048984,-0.122646078467369,-0.4558300673961639,-0.6145030856132507,walking
1761225803356148500,-0.7237042965359985,-0.0418459220826625,-1.202447451803088,-0.0867783576250076,-0.3272262811660766,-0.6328259110450745,walking
1761225803366161700,-0.6997854416143149,0.0727250444710254,-0.9617436757177114,-0.0573544278740882,-0.2071832418441772,-0.6495414972305298,walking
1761225803376175400,-0.6277331087730824,0.1361567754179239,-0.5382131429761647,-0.0381301343441009,-0.1327100694179535,-0.6624618172645569,walking
1761225803386188500,-0.5012363978324458,0.1784264758706092,-0.1590875691503286,-0.00624271761626,-0.0978905409574508,-0.6660916805267334,walking
1761225803396201700,-0.3308628435034305,0.1955482910633087,0.0882686505615711,0.0394683107733726,-0.0840122774243354,-0.651695966720581,walking
1761225803406214400,-0.2093804901260882,0.2692711144000291,0.2722749723911285,0.102694071829319,-0.0889327451586723,-0.6205924153327942,walking
1761225803416228600,-0.0853898802548646,0.3603255962878465,0.5000613992363214,0.1625369042158126,-0.1216161176562309,-0.5783475041389465,walking
1761225803426241300,0.0055807592744007,0.4375847770571708,0.7077385195106267,0.2225255072116851,-0.1613797843456268,-0.5274962782859802,walking
1761225803436254500,0.0207612676735967,0.3731961837768554,0.9647294135302305,0.2579191923141479,-0.2095835357904434,-0.4757896959781647,walking
1761225803446267600,0.0508074829017743,0.2552349902629852,1.254593234103918,0.2575254142284393,-0.2788488268852234,-0.4301096498966217,walking
1761225803456281300,0.0505297254063189,0.147085581189394,1.4434534257054328,0.2341673523187637,-0.3408256471157074,-0.388098269701004,walking
1761225803466294500,-0.0492835612701252,0.0987169793397188,1.5498445929348468,0.1789534986019134,-0.3867212831974029,-0.3592446446418762,walking
1761225803476307500,-0.197559229026921,0.0280734173178672,1.693124936622381,0.0824448093771934,-0.4476298987865448,-0.3430190682411194,walking
1761225803486321400,-0.2990111132232472,-0.026022330006957,1.69614808383584,-0.0262559354305267,-0.4979723989963531,-0.3293152451515198,walking
1761225803496334600,-0.3011608751356601,0.028487843337655,1.4665946473181246,-0.1327331215143203,-0.5185142159461975,-0.3050373196601867,walking
1761225803506347500,-0.3421009344197809,0.1610989089727401,1.169094048255682,-0.2435907423496246,-0.5084277391433716,-0.2761076390743255,walking
1761225803516360400,-0.4168708921892568,0.2743161228299141,0.939735257527232,-0.3633078038692474,-0.4676595032215118,-0.237553596496582,walking
1761225803526374700,-0.4288387221522629,0.3589525543689728,0.5664718537330627,-0.458934873342514,-0.3853338062763214,-0.1828750073909759,walking
1761225803536387300,-0.3614239129185676,0.4456996944516897,0.0972206033021211,-0.5000191926956177,-0.2892371118068695,-0.1176398172974586,walking
1761225803546400500,-0.4023366823369637,0.5035100783854722,-0.3060346186518669,-0.4898885488510132,-0.1900290250778198,-0.0614662952721118,walking
1761225803556413400,-0.4614827718539163,0.4936182144463062,-0.5162018021762371,-0.4221203923225403,-0.1276684403419494,-0.019332155585289,walking
1761225803566427600,-0.5071237388379871,0.4167950870066881,-0.6378180110663175,-0.3002033531665802,-0.1067258045077323,0.0101611595600843,walking
1761225803576440600,-0.5420443917021155,0.3170616241008043,-0.807590640360117,-0.127676323056221,-0.0892541408538818,0.0193815566599369,walking
1761225803586453800,-0.6011305311927572,0.1651671813249587,-0.8363181376725435,0.0551806017756462,-0.0767562165856361,0.0064188400283455,walking
1761225803596467700,-0.6213515910424292,0.0771218181252479,-0.5451794748574496,0.21308234333992,-0.0833456814289093,-0.0111502995714545,walking
1761225803606480600,-0.5861108393784612,-0.0613800591140985,-0.0287497091442346,0.3105159997940063,-0.1051129475235939,-0.0343297980725765,walking
1761225803616493800,-0.4753719618009403,-0.2472843235194683,0.4618599711358547,0.3528493344783783,-0.1312808990478515,-0.0586119666695594,walking
1761225803626506500,-0.377843899984844,-0.417811570572853,0.8688467808336019,0.3412680029869079,-0.1555701941251754,-0.0873233154416084,walking
1761225803636520700,-0.3529688768494874,-0.5026432324230671,1.1910159572064876,0.2794829308986664,-0.1619074493646621,-0.1154292523860931,walking
1761225803646533600,-0.3474427338391542,-0.527117748466134,1.3564081794589755,0.1924026906490326,-0.1300512105226516,-0.1416168361902237,walking
1761225803656546600,-0.3522388090092688,-0.4479629632085561,1.387269766190648,0.0925903469324112,-0.057800181210041,-0.1611407250165939,walking
1761225803666559700,-0.3491690096424892,-0.357198988699913,1.4157418274372815,-0.0099680423736572,0.0207735374569892,-0.1782498061656952,walking
1761225803676573400,-0.30126481043417,-0.2308469834595918,1.4384838205993176,-0.107622429728508,0.0853104516863823,-0.1832932978868484,walking
1761225803686586600,-0.2199367727907374,-0.1207797580659389,1.325965110400319,-0.1771952658891677,0.1404290646314621,-0.1743533909320831,walking
1761225803696599800,-0.1180470086337998,-0.0034784897655248,1.0975468153923749,-0.2159863412380218,0.1888621151447296,-0.1507047861814499,walking
1761225803706612500,-0.032669914795272,0.0898082812190055,0.8692986162543296,-0.2191324084997177,0.2203462570905685,-0.1173223704099655,walking
1761225803716626700,0.009963248674944,0.1672977636128663,0.7460089211940765,-0.1942941695451736,0.208417147397995,-0.0904577374458313,walking
1761225803726639600,0.0615462825264781,0.1916273182272911,0.6771978352963924,-0.1641705334186554,0.176323115825653,-0.0582798346877098,walking
1761225803736652500,0.0779658677339553,0.1321247434228658,0.5659259102880955,-0.1340744197368621,0.155142992734909,-0.0236576758325099,walking
1761225803746666800,0.1065986359676346,0.1512339330404996,0.4215554332762956,-0.1053118854761123,0.1428099870681762,0.0258636903017759,walking
1761225803756679400,0.1283622856168076,0.1936667151004076,0.2653577403485775,-0.0731448978185653,0.1566232740879058,0.0827027410268783,walking
1761225803766692600,0.1280129607224837,0.2337257537662982,0.1431172620803117,-0.0495855696499347,0.1917596459388733,0.143009677529335,walking
1761225803776705500,0.1163507991751655,0.2198848599404096,-0.0035065468162298,-0.0233425125479698,0.2288694679737091,0.1986047625541687,walking
1761225803786719500,0.0648693625345826,0.1549602600872516,-0.1807774229109287,0.0125024747103452,0.2731168270111084,0.2538467347621918,walking
1761225803796732700,-0.013207491293177,0.1097533371388912,-0.53883741235435,0.071498155593872,0.3456866145133972,0.3017937541007995,walking
1761225803806745600,-0.0848694000447169,0.0933539910018444,-0.7169967617213726,0.140683114528656,0.4077624678611755,0.3368757367134094,walking
1761225803816758500,-0.1547691579619422,0.006654197192192,-0.6750345197826624,0.2035017609596252,0.4296714663505554,0.3585956990718841,walking
1761225803826772700,-0.1657416932772845,-0.1581201854228973,-0.5889958202302455,0.25752854347229,0.4191947281360626,0.3744890689849853,walking
1761225803836785700,-0.1724612838558852,-0.2972533463031053,-0.4547837491393089,0.2949113249778747,0.3901931643486023,0.3808260858058929,walking
1761225803846798600,-0.2338836112091317,-0.3682604809403419,-0.4433575152397155,0.3209762871265411,0.4049903750419616,0.3787800371646881,walking
1761225803856811500,-0.3319625118410214,-0.3709977969497442,-0.4822533553451299,0.3331037759780884,0.4938225150108337,0.3687223196029663,walking
1761225803866825500,-0.3539676420958712,-0.4048170644432306,-0.4673281734138726,0.3253184854984283,0.6203543543815613,0.3577781021595001,walking
1761225803876838700,-0.2267314378995448,-0.436730206054449,-0.2319043835580349,0.3019468486309051,0.7144722938537598,0.3504243195056915,walking
1761225803886851600,-0.0594048317846842,-0.5341425325363874,0.131475339603424,0.2588108479976654,0.7463794946670532,0.3354538083076477,walking
1761225803896865500,0.1195899089605547,-0.7211369302660227,0.4138268848508596,0.1984819918870926,0.7532656192779541,0.3222285509109497,walking
1761225803906878700,0.3090577658653259,-0.8726198696315288,0.6187918235570192,0.1204453408718109,0.7403892874717712,0.3075169324874878,walking
1761225803916891600,0.4637012881536036,-0.9782003049999476,0.8699106106728315,0.020057214424014,0.6743713617324829,0.295993447303772,walking
1761225803926904600,0.564361693178676,-0.9900748671889305,1.0617606317400932,-0.0959466397762298,0.558661937713623,0.2888512015342712,walking
1761225803936918800,0.5895086651232093,-0.9418909742563962,1.0134148262441158,-0.22067391872406,0.4239480793476105,0.27470263838768,walking
1761225803946931700,0.5885103748008609,-0.851272545698285,0.6241852070331573,-0.3156256675720215,0.3067506551742553,0.2633184492588043,walking
1761225803956944600,0.5588583830546587,-0.6377461148738861,0.0185895496577024,-0.391882061958313,0.2084174156188964,0.2527297139167785,walking
1761225803966957600,0.3814879555756226,-0.2971650834977626,-0.651058600911498,-0.4384969472885132,0.1670363694429397,0.2523647546768188,walking
1761225803976971500,0.0860847489175386,-0.0364987158358097,-1.2372627445966005,-0.4860479533672333,0.2118166238069534,0.2412330359220504,walking
1761225803986984700,-0.0531798654557671,0.1950029321402311,-1.8189935422599317,-0.4962760806083679,0.3484850823879242,0.2392773777246475,walking
1761225803996997600,-0.0311962757458677,0.5343991376459598,-2.318367543753981,-0.4534851908683777,0.5373303890228271,0.2666139304637909,walking
1761225804007010800,0.0542512438472127,0.8359335222691298,-2.5600515630483627,-0.3656868636608124,0.7421764731407166,0.3197796046733856,walking
1761225804017024500,0.1945916113929822,1.0813953065365551,-2.5379063667356965,-0.2296321094036102,0.9154800772666932,0.3929648697376251,walking
1761225804027037700,0.4611836062442511,1.210581658419967,-2.266484211781621,-0.0563737750053405,0.9913641810417176,0.4883374571800232,walking
1761225804037050600,0.700560444574803,1.2068261052787304,-1.855565323331952,0.1276551783084869,1.0169169902801514,0.5913205742835999,walking
1761225804047064600,0.781772162362188,1.0299310767591,-1.3174427812486886,0.2983758151531219,1.027580738067627,0.6791265606880188,walking
1761225804057077800,0.7152345012892037,0.777543292620778,-0.65217386867702,0.4099710583686828,0.990839183330536,0.7440528273582458,walking
1761225804067090400,0.5625800339262932,0.5071662628054618,0.1664297486066818,0.4657695889472961,0.8600106835365295,0.7707904577255249,walking
1761225804077103600,0.624495295895636,0.2147825683653354,0.8006020966470241,0.5059921145439148,0.649134635925293,0.7689193487167358,walking
1761225804087117600,0.693575261862576,0.0586813215494155,1.2000094110012054,0.5267054438591003,0.405807763338089,0.734149694442749,walking
1761225804097130500,0.7423297942899167,-0.0805845257997512,1.2897031259298324,0.5417541861534119,0.2045971453189849,0.6801663637161255,walking
1761225804107143700,0.6735243344154208,-0.0912327610641717,1.2733061178803444,0.5232227444648743,0.0669311434030532,0.6330326199531555,walking
1761225804117156600,0.5931497615719213,0.000941664764285,1.323626438319683,0.4577130079269409,-0.0211241468787193,0.5965339541435242,walking
1761225804127170600,0.5559707718543708,0.0398211382567882,1.316356739577651,0.3467132449150085,-0.0596177466213703,0.5787853598594666,walking
1761225804137183700,0.5016511526457965,0.056287704411149,1.191951776751876,0.2148844301700592,-0.0495577342808246,0.5709925293922424,walking
1761225804147196400,0.3688459526780993,0.1179109246313571,1.0320610745251175,0.0786768049001693,-0.0181021001189947,0.5493556261062622,walking
1761225804157209600,0.1320621265154332,0.1579693787753582,0.8214221818357705,-0.0469599552452564,0.0321245826780796,0.5076044797897339,walking
1761225804167223800,-0.0792684838982764,0.1805406915456056,0.5123346053540706,-0.1518411785364151,0.1150486096739769,0.4547456800937652,walking
1761225804177236500,-0.2269745990056544,0.1982020204424858,0.2694885565429926,-0.2227299958467483,0.1850125044584274,0.3914958834648132,walking
1761225804187249700,-0.2820434656789526,0.2171691712409257,0.0825204622983932,-0.2514258027076721,0.2413634061813354,0.3277203738689422,walking
1761225804197263600,-0.2717196948622353,0.285183553802967,-0.133862527000904,-0.2434246242046356,0.3010432422161102,0.2671893835067749,walking
1761225804207276500,-0.2524286641379818,0.3321329365044832,-0.2467640990376472,-0.1959031820297241,0.3402734696865082,0.2148979604244232,walking
1761225804217289700,-0.1431773491039406,0.4258224430710077,-0.2226169152528047,-0.1181199625134468,0.3610312044620514,0.1848282068967819,walking
1761225804227302700,-0.0131938280940055,0.5055623347401619,-0.1467465584933757,-0.0292031206190586,0.3657995462417602,0.1630328446626663,walking
1761225804237316600,0.102527431872813,0.5079501066595316,0.0081055650442838,0.0543093495070934,0.3626405596733093,0.1501322239637375,walking
1761225804247329800,0.1909009401815012,0.4527946211487054,0.2335644257247447,0.1174491345882415,0.3463247120380401,0.1461724638938903,walking
1761225804257342500,0.3185568676272407,0.4205868805050849,0.4866705872654914,0.1559685617685318,0.3239126205444336,0.1487514674663543,walking
1761225804267355600,0.4536094446629286,0.347027138775587,0.7917664637625217,0.173680230975151,0.2867611944675445,0.1535349041223526,walking
1761225804277369600,0.5585504861492663,0.2459831777930259,1.1181804380983114,0.1608999818563461,0.1973170489072799,0.1652416288852691,walking
1761225804287382500,0.6306997034937143,0.1371615685462951,1.4044512026160954,0.123771920800209,0.0802268907427787,0.1675249636173248,walking
1761225804297395700,0.5831387282324955,-0.0065022215008735,1.5597522389650345,0.0625642165541648,-0.033061858266592,0.1590433269739151,walking
1761225804307408600,0.4473738382089883,-0.1112841999679803,1.546899187132716,-0.0326836444437503,-0.1058689653873443,0.1514559686183929,walking
1761225804317422600,0.332306174179539,-0.1270090078443288,1.4243933359265326,-0.1322512477636337,-0.1420501321554184,0.1448409408330917,walking
1761225804327435800,0.2638426230778917,-0.1074269400179386,1.1547253311634065,-0.2257794588804245,-0.1335172057151794,0.1421239823102951,walking
1761225804337448700,0.1744906342590227,-0.0748100340515375,0.8966565787792206,-0.3028819561004638,-0.1094030812382698,0.1370677053928375,walking
1761225804347461600,0.0691980667881202,-0.0176233349740505,0.5916892970979213,-0.3519411385059356,-0.071837693452835,0.133839800953865,walking
1761225804357475600,-0.0527135265856515,0.0294727627217769,0.2292816338390111,-0.3596866726875305,-0.032171506434679,0.1229716911911964,walking
1761225804367488500,-0.1596078484310768,0.0660936436325311,-0.1694032114595174,-0.3115955591201782,0.0079763904213905,0.1074267327785492,walking
1761225804377501700,-0.2283606830691918,0.0906686974406242,-0.4779062660515308,-0.2263216525316238,0.0430249199271202,0.0804941803216934,walking
1761225804387515600,-0.2434953978315926,0.0905325038403272,-0.5815747303187847,-0.1166624277830123,0.0311085991561412,0.058804053813219,walking
1761225804397528600,-0.1383950375976972,0.0427566071867942,-0.5412292759269476,0.0044203149154782,-0.0035361978225409,0.041427195072174,walking
1761225804407541500,-0.0186054082388931,-0.0324409648776054,-0.4192167611956596,0.1167074963450431,-0.0490802004933357,0.0295876543968915,walking
1761225804417554700,0.0539903050558175,-0.1229179391384124,-0.1320236211359501,0.2058911621570587,-0.1021937578916549,0.0121910879388451,walking
1761225804427568600,0.106279943673592,-0.1915595136880874,0.2724135040789842,0.2420652508735656,-0.1833221614360809,-0.0068417396396398,walking
1761225804437581600,0.1993422034535557,-0.303731017884612,0.6035784723341464,0.2357857823371887,-0.2719484567642212,-0.0242212619632482,walking
1761225804447594800,0.2899756834503263,-0.4001666082888841,0.7594032402962446,0.195537731051445,-0.3359173536300659,-0.026212066411972,walking
1761225804457607400,0.3379834891635924,-0.352846054187417,0.7329378426969051,0.151059478521347,-0.3660446405410766,-0.0168651696294546,walking
1761225804467621600,0.2270368871195241,-0.3397445805519819,0.6228904910475015,0.0997191593050956,-0.3715025186538696,-0.0173437558114528,walking
1761225804477634600,0.0188354050443973,-0.3664356036007404,0.5018646492660045,0.0462380871176719,-0.3761657178401947,-0.0450379662215709,walking
1761225804487647500,-0.1634755201772786,-0.4271463851511478,0.3554758181691169,0.0167330037802457,-0.3741715252399444,-0.0873710140585899,walking
1761225804497660700,-0.2487261563582345,-0.4641466207683086,0.1368687230795622,0.0105036031454801,-0.368708848953247,-0.1374499052762985,walking
1761225804507674600,-0.2120188210067339,-0.4493658157438039,-0.0567459695726633,0.0302770398557186,-0.3654303848743438,-0.1822571009397506,walking
1761225804517687600,-0.1716437203953042,-0.4333984312832355,-0.2208154187887906,0.0567323490977287,-0.3489536643028259,-0.2206502854824066,walking
1761225804527700700,-0.0520274348844774,-0.4368167152941227,-0.3198749279558658,0.0987121164798736,-0.3192387819290161,-0.2455409616231918,walking
1761225804537714700,0.0441196391683071,-0.4392378049612045,-0.2041425164073705,0.1296633780002594,-0.3412255644798279,-0.255525141954422,walking
1761225804547727600,0.1317146647846326,-0.4782271685689687,0.1869546502411365,0.1311709135770797,-0.4570399522781372,-0.2677336931228637,walking
1761225804557740800,0.1270656699350103,-0.5881155302643776,0.4375099582552909,0.105707898736,-0.6089830994606018,-0.2815890610218048,walking
1761225804567753000,0.0641703108871355,-0.6990344040513038,0.349002238240838,0.0682702511548996,-0.7154874801635742,-0.29875648021698,walking
1761225804577767200,-0.1095173364259302,-0.7843763535112143,-0.0178138891100883,0.0234708227217197,-0.754356861114502,-0.3255992829799652,walking
1761225804587780400,-0.4085685989964753,-0.8586088799357414,-0.3759557116180658,-0.035341914743185,-0.75888592004776,-0.3694604933261871,walking
1761225804597793000,-0.6242198399551212,-0.9390314931720496,-0.5753174234896898,-0.106666699051857,-0.7467448115348816,-0.4326517283916473,walking
1761225804607806200,-0.6966704513989389,-1.0320517221748828,-0.8137363035082816,-0.1852091252803802,-0.6918922662734985,-0.5026594400405884,walking
1761225804617820000,-0.6620297845199704,-1.0009177482426166,-1.082061661490798,-0.2520403265953064,-0.5900985598564148,-0.5564214587211609,walking
1761225804627833000,-0.5662748333236203,-0.8439706982523203,-1.3135188858032223,-0.312276542186737,-0.4971897900104522,-0.5797206163406372,walking
1761225804637846300,-0.4696589179163798,-0.5908768116712569,-1.4118401438236237,-0.3580467104911804,-0.4266916215419769,-0.5821821689605713,walking
1761225804647859200,-0.3773268903734162,-0.3542810554265976,-1.565957523345947,-0.3706057071685791,-0.3621225357055664,-0.5550518035888672,walking
1761225804657873200,-0.2485662896214052,-0.1652022526383399,-1.7178028662830591,-0.3406613767147064,-0.3175750374794006,-0.5188447833061218,walking
1761225804667886000,-0.2127156258981674,-0.014282207852602,-1.815420944470167,-0.2667146027088165,-0.3130281567573547,-0.4804680347442627,walking
1761225804677899000,-0.2133591114334762,0.1492892287135124,-1.893542295026779,-0.1567446738481521,-0.3187933564186096,-0.4420210421085357,walking
1761225804687912200,-0.217793769412674,0.2781616923421621,-1.9256255325078964,-0.009830716997385,-0.2911045551300049,-0.4079196751117706,walking
1761225804697926100,-0.2720419308202341,0.3899953428864479,-1.8173188870459795,0.1472795456647873,-0.2619762420654297,-0.3808425366878509,walking
1761225804707939000,-0.2827770771831274,0.4814905542790889,-1.536440336960554,0.3032411932945251,-0.2336519658565521,-0.3547124564647674,walking
1761225804717952000,-0.2761516311613842,0.524497336834669,-1.161447332894802,0.4312053024768829,-0.1840236932039261,-0.33606818318367,walking
1761225804727965200,-0.3112721174465492,0.4949281280010938,-0.6603004765093327,0.5225008130073547,-0.1396637260913849,-0.3324095904827118,walking
1761225804737979100,-0.2863988478768616,0.4635293656527995,-0.0540484010517597,0.55894535779953,-0.1319314986467361,-0.3372807800769806,walking
1761225804747992000,-0.2666367473084479,0.4007563908755779,0.4649737192422151,0.5629956126213074,-0.1393247097730636,-0.3456292748451233,walking
1761225804758005200,-0.2508816904243082,0.3793108672648668,0.7890431762784719,0.5428365468978882,-0.1317871659994125,-0.3600457608699798,walking
1761225804768019200,-0.1862021513734012,0.4113654631733894,1.067279687422514,0.4996616244316101,-0.1208345293998718,-0.3700228333473205,walking
1761225804778032000,-0.0992208737412467,0.4802829320549964,1.3338479726046324,0.4257951080799103,-0.1323098391294479,-0.3583938777446747,walking
1761225804788045000,0.0705991383582353,0.5516431179136038,1.5760434485524892,0.326789379119873,-0.1575102806091308,-0.3411960005760193,walking
1761225804798058000,0.2188262542655691,0.5367974309593438,1.7387188130617142,0.2045329511165619,-0.1912783533334732,-0.3090655207633972,walking
1761225804808072200,0.2915726337855681,0.5414771132081747,1.7866332414031028,0.0786500349640846,-0.2288322448730468,-0.2695329189300537,walking
1761225804818085000,0.2707088555855676,0.548048892813921,1.7145505864888428,-0.0510749369859695,-0.2761675119400024,-0.2347512543201446,walking
1761225804828098000,0.1409057600433007,0.5209948816716671,1.4670277780383825,-0.1629362553358078,-0.3025133311748504,-0.2070665955543518,walking
1761225804838111200,-0.0402773941243067,0.5376058247327804,0.9903682971775531,-0.2494330555200576,-0.272137850522995,-0.1878255158662796,walking
1761225804848125200,-0.2258111812494695,0.6790607065588236,0.4868991353243589,-0.2897189557552337,-0.204320877790451,-0.1699504256248474,walking
1761225804858138000,-0.3785837585667148,0.765157858300209,0.1348456928193569,-0.3020975887775421,-0.1423933357000351,-0.1607739627361297,walking
1761225804868151300,-0.4378387152856215,0.7619552628666162,-0.0190858087420463,-0.29863440990448,-0.0928943529725074,-0.1607646048069,walking
1761225804878164000,-0.405761615284346,0.7399515208512544,-0.0790916568934917,-0.2702307403087616,-0.0609942115843296,-0.1494317948818206,walking
1761225804888178200,-0.3054224415702745,0.7314210083931684,-0.0810901372343301,-0.2247185111045837,-0.0368483290076255,-0.1266688257455825,walking
1761225804898191000,-0.2174868223553523,0.7541647551208734,-0.0981774656355381,-0.1653585135936737,-0.016459435224533,-0.0968542173504829,walking
1761225804908204000,-0.1939714702006429,0.7591776148468256,-0.1238292087644338,-0.088460586965084,0.0276980996131896,-0.0727846920490264,walking
1761225804918218200,-0.1361686850514263,0.7716366989254951,-0.1067389577537775,-0.0049537066370248,0.0761561766266822,-0.0397407189011573,walking
1761225804928231000,-0.1011927948687225,0.8191045525431633,0.0815098239511251,0.0781632214784622,0.1143831461668014,-0.0063998834230005,walking
1761225804938244000,-0.0276149329606443,0.7357178288042545,0.4166337589651346,0.1406764090061187,0.1202184036374092,0.0212746206670999,walking
1761225804948257300,0.0102042543565854,0.5263906032353639,0.8644318870007991,0.1768593788146972,0.0740344747900962,0.0399911887943744,walking
1761225804958271000,0.0170542663818225,0.2907669068932533,1.3545283570617437,0.1621315777301788,-0.0043207835406064,0.0462360344827175,walking
1761225804968284200,0.0760237937554717,0.0962298386991024,1.6627502566248178,0.1087026298046112,-0.0837858021259307,0.0494088940322399,walking
1761225804978297300,0.1487884761171415,-0.0197784671813249,1.7413456544339656,0.0259483605623245,-0.1249707788228988,0.0788056626915931,walking
1761225804988310000,0.1662540632462129,-0.059252983957529,1.588684318938851,-0.0696147456765174,-0.1223222687840461,0.1205968037247657,walking
1761225804998324200,0.1353975545484572,-0.0653466246575117,1.320159054470062,-0.1669471561908722,-0.0872393772006034,0.1597913354635238,walking
1761225805008337000,0.0057272916056215,-0.0244727624773979,0.9198258574426174,-0.2289052754640579,-0.0218818988651037,0.2009324729442596,walking
1761225805018350000,-0.1751889552541077,0.067470192682743,0.5185545027822256,-0.264361560344696,0.0479991845786571,0.2355423718690872,walking
1761225805028363300,-0.4089012284843251,0.0528770191848278,0.2070738936841487,-0.2686127722263336,0.1138433367013931,0.2512396872043609,walking
1761225805038377000,-0.5919302297143265,0.0121481184333562,-0.0256231015563011,-0.2516087591648102,0.1779951751232147,0.2507035732269287,walking
1761225805048390100,-0.6695845107484608,-0.0630950463384389,-0.1117646769613027,-0.2183791100978851,0.2117899656295776,0.2464231997728347,walking
1761225805058403000,-0.6443925671510398,-0.1665747100353241,-0.1413280405759811,-0.1643595546483993,0.2170774042606353,0.2455454170703888,walking
1761225805068416000,-0.6246480022393167,-0.255140297716856,-0.209566879543662,-0.0995160341262817,0.21924389898777,0.2446477115154266,walking
1761225805078430200,-0.594112396058999,-0.2831710449367761,-0.1826636750489473,-0.0282525047659873,0.2265960872173309,0.2520331740379333,walking
1761225805088443100,-0.5490828024389222,-0.2885837176352739,-0.0879921717077493,0.0363421067595481,0.2128335535526275,0.2624699175357818,walking
1761225805098456000,-0.4959896197527647,-0.3001081512123346,-0.0180757549166679,0.0894237011671066,0.2092958092689514,0.2812140583992004,walking
1761225805108469000,-0.4668456871265545,-0.369819400820136,-0.0665963324576616,0.133684903383255,0.2433881163597107,0.299602597951889,walking
1761225805118483000,-0.5344000509614124,-0.4284177202612161,-0.1078372743844986,0.160949021577835,0.2877481281757355,0.3198386132717132,walking
1761225805128496000,-0.6148140059672296,-0.442157491800189,-0.0302080912590026,0.1775271594524383,0.3016332387924194,0.3266122341156006,walking
1761225805138509000,-0.6717525024373084,-0.4840408232837915,0.0843184516310691,0.1970350742340088,0.2825697958469391,0.323847621679306,walking
1761225805148522200,-0.6796698514331132,-0.514870261311531,0.1367827983617782,0.2173291593790054,0.240631952881813,0.3148410618305206,walking
1761225805158536200,-0.7090718139410018,-0.5311357519358396,0.1133557455450296,0.2403852194547653,0.1990504115819931,0.3071602582931518,walking
1761225805168549000,-0.7140547899853438,-0.479330745896697,0.0193032508850097,0.2664670646190643,0.1896176040172577,0.2913119494915008,walking
1761225805178562000,-0.7005667281851172,-0.3686410046905279,-0.0889496185630559,0.2801722288131714,0.2308787554502487,0.2819176614284515,walking
1761225805188576300,-0.7387777278315275,-0.3073123835027218,-0.2366869416594505,0.2831021249294281,0.3165190815925598,0.2780779004096985,walking
1761225805198589200,-0.7389527190722525,-0.2428185762822627,-0.3348679144263267,0.2854065597057342,0.4303077161312103,0.2663251161575317,walking
1761225805208602000,-0.7419874105930327,-0.207610484778881,-0.4375216486930847,0.2946893870830536,0.5647532939910889,0.2598696649074554,walking
1761225805218615000,-0.7510144743964076,-0.1804465835213661,-0.428520596113801,0.306313008069992,0.681380569934845,0.2516833841800689,walking
1761225805228629000,-0.5980593070538714,-0.2198895361155271,-0.2280745961368084,0.3292372822761535,0.72782963514328,0.2395029962062835,walking
1761225805238642200,-0.2844099573482759,-0.291451966547966,0.0306949979931116,0.3491944968700409,0.7228984832763672,0.2485761195421219,walking
1761225805248655000,0.107344248436857,-0.3536421730011701,0.1989338418483734,0.3584602475166321,0.7067703008651733,0.2720489799976349,walking
1761225805258668300,0.3999627197472378,-0.4271189126223325,0.4084352549403905,0.3523520231246948,0.6628968119621277,0.2988451719284057,walking
1761225805268682000,0.614095044042915,-0.4722808273851871,0.7572855174899101,0.3062960803508758,0.5658513903617859,0.3372322618961334,walking
1761225805278695200,0.7594115697331726,-0.5617325502514838,1.052514079967141,0.2233783155679702,0.4330216944217682,0.3715044856071472,walking
1761225805288708000,0.8249413689378648,-0.7118792725771665,1.182386076027155,0.1092630177736282,0.2861314415931701,0.3972846865653991,walking
1761225805298721000,0.7466859436728059,-0.7893500502705574,1.162571953010559,-0.0380012691020965,0.1265697479248047,0.412502259016037,walking
1761225805308735200,0.5805910530436784,-0.723407797807455,0.9416250167965888,-0.1956712007522583,-0.0172640215605497,0.4236565232276916,walking
1761225805318748200,0.2706307853806763,-0.5457581515282393,0.3078080580651759,-0.332684725522995,-0.0475564152002334,0.433743804693222,walking
1761225805328761000,-0.1047181742495857,-0.2699135039567947,-0.5217237804681062,-0.4335054457187652,0.0443444922566413,0.4182945489883423,walking
1761225805338774300,-0.4235520139209925,0.0271247382909059,-1.1884668572455643,-0.4860559999942779,0.2318225055932998,0.4012625813484192,walking
1761225805348788000,-0.551410624331981,0.346967517542839,-1.7059014160871504,-0.4716905653476715,0.4818152785301208,0.3858782649040222,walking
1761225805358801200,-0.4981977242562919,0.617426964944601,-2.001464909607172,-0.390096366405487,0.7064486742019653,0.3940752148628235,walking
1761225805368814300,-0.2582354507206008,0.7709609916210174,-2.083965498161316,-0.2444225847721099,0.8908367156982422,0.421851098537445,walking
1761225805378827000,0.0119288861921057,0.8330588436156511,-2.030065565669537,-0.0393581166863441,1.0260941982269287,0.4561070799827575,walking
1761225805388841200,0.2719514029925688,0.8057289381414652,-1.5286638577401637,0.1702602803707122,1.0482383966445925,0.47920623421669,walking
1761225805398854100,0.5160879300056025,0.6759194859236478,-0.6212398012310266,0.3364835977554321,0.941970705986023,0.4859903752803802,walking
1761225805408867000,0.8215816832464188,0.4150765926510095,0.1934966192305088,0.4564085304737091,0.7592849135398865,0.500543475151062,walking
1761225805418881300,1.1523159319341183,0.2206979298889637,0.906799202609062,0.514441728591919,0.5325811505317688,0.5312113761901855,walking
1761225805428894000,1.4321280218318104,0.0656289487302303,1.425170750039816,0.5129165053367615,0.2986483871936798,0.5725285410881042,walking
1761225805438907100,1.592133582609892,-0.0741360803127288,1.7964356734931468,0.4496203660964966,0.0815562754869461,0.6223219037055969,walking
1761225805448920000,1.5820495570994912,-0.1677794096499681,1.9960475607335568,0.3392625451087951,-0.1038799285888671,0.6512347459793091,walking
1761225805458934000,1.445713479591906,-0.2726455592691898,2.0204338139712807,0.1926094591617584,-0.2469372004270553,0.6616011261940002,walking
1761225805468947200,1.146078279653564,-0.3154091807186603,1.922722212281823,0.021836020052433,-0.3588629364967346,0.652884840965271,walking
1761225805478960000,0.7950700353525578,-0.3136199592143297,1.554195189359784,-0.1499032378196716,-0.416741669178009,0.6257304549217224,walking
1761225805488973000,0.3705808867119252,-0.2878641711890697,0.9146353030622004,-0.2932732999324798,-0.3963660895824432,0.5756729245185852,walking
1761225805498987300,-0.015553104571253,-0.1613742187827825,0.2791156320661306,-0.4039651751518249,-0.3106381595134735,0.5018455982208252,walking
1761225805509000000,-0.2923541760846972,-0.0278214883834123,-0.2576742001086473,-0.477959930896759,-0.2209767401218414,0.4178192913532257,walking
1761225805519013000,-0.4993834999747574,0.1191618014752864,-0.97951957090497,-0.4787548780441284,-0.0932715088129043,0.3453275263309479,walking
1761225805529026000,-0.6255138252884149,0.2297930904924869,-1.782231207051873,-0.4004384577274322,0.1207116618752479,0.265982449054718,walking
1761225805539040000,-0.7257609368048608,0.3555722642809152,-2.2017034043133257,-0.275498628616333,0.3309873938560486,0.1794571429491043,walking
1761225805549053200,-0.6802136759862303,0.5325239914238452,-2.0763199518442157,-0.1377304196357727,0.4797650575637817,0.1051523834466934,walking
1761225805559066000,-0.4320415002489462,0.6371750369876623,-1.6656898172080516,0.0045295269228518,0.5709330439567566,0.0603841170668602,walking
1761225805569079300,-0.0331922581689432,0.6210761351019144,-1.08166594017148,0.1319842338562011,0.6042301654815674,0.0434714220464229,walking
1761225805579093200,0.4021268024459481,0.5890361522406339,-0.3497451655626297,0.2240997701883316,0.5805152654647827,0.0465007685124874,walking
1761225805589106400,0.7328589322417974,0.5712286928713322,0.3693143739074468,0.2758657038211822,0.5079134106636047,0.0680685713887214,walking
1761225805599119000,0.96402367641367,0.480514987245202,0.9126970284759998,0.2994725108146667,0.4223687052726745,0.0976922437548637,walking
1761225805609132300,1.0538884370602666,0.3510702766865491,1.321903267788887,0.2784987688064575,0.3316883444786072,0.1201584041118621,walking
1761225805619146200,1.0781795593604444,0.1967950762540102,1.6553414416730403,0.2252816259860992,0.2419930845499038,0.1396769732236862,walking
1761225805629159200,1.0621818528268483,0.0498012650012969,1.8237433671355243,0.1453001499176025,0.1737634390592575,0.1497879475355148,walking
1761225805639172400,1.0296602969937023,-0.0512169770181179,1.956256817615032,0.044293638318777,0.1159653812646865,0.1541030555963516,walking
1761225805649185300,0.9195353500634432,-0.1359685593694448,2.016117704337835,-0.0721984580159187,0.0537482611835002,0.1579029709100723,walking
1761225805659199200,0.808226965502277,-0.2015209357321262,1.949625416776538,-0.1767989099025726,-0.0135956266894936,0.1601312458515167,walking
1761225805669212400,0.6496541409410536,-0.2286474275887012,1.7409002487540244,-0.2732168138027191,-0.0679579079151153,0.1540195941925048,walking
1761225805679225000,0.4678719249017536,-0.2413432430326938,1.3538199165314435,-0.3523361384868622,-0.0704042837023735,0.1326615810394287,walking
1761225805689238300,0.3178112734243273,-0.2189724212706089,0.9001268852382898,-0.4069818258285522,-0.0269014947116374,0.1114842221140861,walking
1761225805699252500,0.2095984437257051,-0.1525730726897716,0.3792559222072362,-0.4259041249752044,0.0486388020217418,0.0985045060515403,walking
1761225805709265200,0.1494795819201506,-0.0709580347985029,-0.1345885031878948,-0.3972437083721161,0.1490970253944397,0.0799429267644882,walking
1761225805719278300,0.1702339997278526,-0.0129512515097856,-0.4317313748538494,-0.3408675193786621,0.2330960631370544,0.0601668246090412,walking
1761225805729292300,0.2609235938260331,0.0759820004403591,-0.4845300681054592,-0.2646052837371826,0.2690474987030029,0.0580759532749652,walking
1761225805739305200,0.4363538470227271,0.1136100125670433,-0.4248521367341279,-0.1755640804767608,0.2614857256412506,0.0772959813475608,walking
1761225805749318400,0.6267412481915206,0.0671463675558567,-0.3028273470431566,-0.0738046392798423,0.2106774449348449,0.1078217476606369,walking
1761225805759331300,0.7349500593021512,0.0387198990166187,-0.1201496434688568,0.0065607763826847,0.1246991604566574,0.1380693912506103,walking
1761225805769345300,0.7608147145293652,-0.0211743054538965,0.070316229763627,0.0532939806580543,0.0509203225374221,0.174194723367691,walking
1761225805779358500,0.7198373189095407,-0.0320224472045898,0.0731119979619979,0.0960851237177848,-0.0008627139031887,0.2186985313892364,walking
1761225805789371100,0.6401444081872701,-0.0335702611684799,-0.0967874725818634,0.1369308829307556,-0.0096343224868178,0.2580143511295318,walking
1761225805799384300,0.4708005256995558,0.0012935469418764,-0.3477121984302997,0.1843039840459823,0.0437066629528999,0.2777182757854461,walking
1761225805809398300,0.2749987530655227,0.0415080684304237,-0.3994254345327615,0.2211979627609253,0.0870700478553772,0.2890898585319519,walking
1761225805819411200,0.2172807053240016,0.0477262122929096,-0.3363502619385719,0.2451930344104766,0.1097633838653564,0.3032363057136535,walking
1761225805829424400,0.2738374359348788,-0.0084948566228151,-0.2589700851380825,0.2544397413730621,0.1116575002670288,0.3243742287158966,walking
1761225805839437300,0.3534409148080274,-0.1375157888114452,-0.1434732359111309,0.2946737110614776,0.1117656230926513,0.3374687135219574,walking
1761225805849451300,0.260273715082556,-0.3427764955937862,-0.3978495635181665,0.3903411626815796,0.0718237161636352,0.2782750129699707,walking
1761225805859464200,0.2150692032869905,-0.7821914106875657,-0.1123030216217041,0.4596595168113708,-0.099217265844345,0.1671421080827713,walking
1761225805869477400,0.2886892969015985,-0.917650266969204,0.3031558483451604,0.4721198379993438,-0.3208838701248169,0.1102506145834922,walking
1761225805879490300,0.3067481737487018,-0.9602180735856294,0.6938315747112035,0.4227192401885986,-0.504167914390564,0.0889306813478469,walking
1761225805889504300,0.257732323504053,-1.1002654267013072,1.0469950242847204,0.2696840763092041,-0.6888608336448669,0.0487454533576965,walking
1761225805899517200,0.107837091721408,-1.3651666554540396,1.2710101158976554,0.0210178010165691,-0.8298727869987488,-0.0269378554075956,walking
1761225805909530400,-0.1538389644397422,-1.3764122720897196,0.9106763363033532,-0.2457782477140426,-0.8126987814903259,-0.1135064736008644,walking
1761225805919543300,-0.4236977060019969,-0.9307698607832192,0.2008569188654422,-0.4668640196323395,-0.6518654823303223,-0.1878398358821869,walking
1761225805929557200,-0.5920920326799154,-0.5464256755262613,-0.4960603469014167,-0.6341428756713867,-0.439836323261261,-0.2104594260454177,walking
1761225805939570200,-0.527153769627586,-0.2192605905622243,-0.8927923045665025,-0.7435755729675293,-0.2621867060661316,-0.1946234703063964,walking
