timestamp,acc_x,acc_y,acc_z,gyr_x,gyr_y,gyr_z,activity
1761225841460273200,-0.0358273193802684,-0.1494967339843511,-0.1191600479096174,0.1214528977870941,0.0669789314270019,0.3182880878448486,walking
1761225841470286000,-0.0665304276145994,-0.277591198977828,0.2251373736411333,0.1820451319217682,-0.0687495991587638,0.3283385932445526,walking
1761225841480299000,-0.1509059797277674,-0.405834717053175,0.5686649798631668,0.2113652676343917,-0.1655944883823394,0.3549176156520843,walking
1761225841490312200,-0.1620236591348424,-0.409642877164483,0.8019628636062145,0.1871611326932907,-0.2295724004507064,0.3915057182312011,walking
1761225841500325000,-0.1681212636238895,-0.4040267908483743,1.0595692591756585,0.1288420408964157,-0.2837309241294861,0.428670734167099,walking
1761225841510339000,-0.2146018963024951,-0.3998632414281368,1.250550096192956,0.0443114526569843,-0.3074714243412018,0.4476420283317566,walking
1761225841520352000,-0.4014223805036395,-0.5360965892136097,1.1507277859598397,-0.0702924951910972,-0.2355185896158218,0.4316146671772003,walking
1761225841530365200,-0.7611334981549531,-0.6619090807497501,0.8459165716230869,-0.1651857197284698,-0.1010822281241417,0.4361066222190857,walking
1761225841540378000,-0.9465752596151084,-0.501955250158906,0.6224035843133926,-0.2351743876934051,0.0226544886827468,0.4302285611629486,walking
1761225841550391300,-0.9769449711766094,-0.4390665400475263,0.5016957224398851,-0.287413626909256,0.1108964681625366,0.4125739336013794,walking
1761225841560405000,-1.069691497804597,-0.6219435655862092,0.3271107244282961,-0.3027859032154083,0.2013220638036728,0.3749931156635284,walking
1761225841570418200,-1.1828371807955205,-0.7249059274107217,0.0643055911719799,-0.2726162672042846,0.2717903554439544,0.3332395553588867,walking
1761225841580431000,-1.1408279579099267,-0.6668488752394914,-0.0896516293525695,-0.2157751023769378,0.3003049790859222,0.2839546799659729,walking
1761225841590444000,-1.0318079765468835,-0.6094418114095926,-0.0834837543725967,-0.1342733204364776,0.3007002174854278,0.247172400355339,walking
1761225841600459000,-0.8661996273256838,-0.5625894593417644,-0.0662333443641662,-0.0498919524252414,0.2689220309257507,0.2351485192775726,walking
1761225841610473000,-0.66455060823448,-0.507501778370142,0.1044534771651029,0.0215904880315065,0.1968774050474167,0.2371472120285034,walking
1761225841620486100,-0.4763368247777223,-0.4935960026144981,0.3634960430175066,0.0791243687272071,0.1168436631560325,0.254873126745224,walking
1761225841630499000,-0.2998418284263461,-0.4820809213876724,0.5971218435406684,0.1053543761372566,0.0472262352705001,0.2771272957324981,walking
1761225841640512000,-0.2616726403613574,-0.5079822553634643,0.8016805395334958,0.0750891715288162,-0.0176267027854919,0.2847681641578674,walking
1761225841650526000,-0.3738550495443865,-0.6388467695921659,0.9985685547679662,0.01109554246068,-0.0484221652150154,0.2892555892467499,walking
1761225841660539000,-0.4894102048298344,-0.7498714418411254,0.9945189871162176,-0.0421013869345188,-0.0498898029327392,0.3028050363063812,walking
1761225841670552000,-0.5566133075416088,-0.6877408566206693,0.7932663469314575,-0.078868456184864,-0.0244896374642848,0.3033334016799927,walking
1761225841680565000,-0.6621501229640097,-0.6241828689455986,0.4858879124552011,-0.1006232053041458,0.0384720340371131,0.2964345216751098,walking
1761225841690578000,-0.8258890981167555,-0.6369324604034423,0.1734463493704795,-0.0920430421829223,0.1164691001176834,0.2797971963882446,walking
1761225841700592000,-0.9515157847572118,-0.6345224766522646,-0.0764922880500554,-0.0634663179516792,0.1712738424539566,0.267852783203125,walking
1761225841710605000,-0.9955977222636342,-0.6338660585701466,-0.1846475423425436,-0.0141589529812335,0.1878741234540939,0.254808634519577,walking
1761225841720618000,-1.0714560963243245,-0.6863514480888843,-0.2689092953503131,0.0467020198702812,0.1960305571556091,0.2225201427936554,walking
1761225841730631200,-1.1799634519901123,-0.7328273680597543,-0.3730377783447504,0.1079717725515365,0.2047148644924163,0.1716668158769607,walking
1761225841740644000,-1.26845546297878,-0.7113251458257437,-0.3404378235131502,0.1517074257135391,0.2123814672231674,0.1217984557151794,walking
1761225841750658000,-1.3192359482757747,-0.6837374661982059,-0.2407897008031606,0.1932892203330993,0.2115753293037414,0.0902373343706131,walking
1761225841760671200,-1.2255888195462523,-0.6153185944885015,-0.1452548586308956,0.232967659831047,0.1955583989620208,0.0740289688110351,walking
1761225841770684000,-0.9936473919134586,-0.5336263997077941,-0.1454267080664634,0.2760506868362427,0.210562378168106,0.0643494427204132,walking
1761225841780697000,-0.8416483197193593,-0.3909504516541958,-0.162639708673954,0.3069307804107666,0.2302733212709427,0.0711547434329986,walking
1761225841790710000,-0.689043828978017,-0.2412280922204256,-0.1137538049519061,0.3197496235370636,0.2980545163154602,0.0904746428132057,walking
1761225841800724000,-0.5115920068258419,-0.1735100622564554,-0.1276432140946388,0.3183134496212005,0.4088715016841888,0.141484647989273,walking
1761225841810737200,-0.3094187811974436,-0.0701882194697856,-0.1115343753367662,0.3139583766460418,0.5189428925514221,0.2056766897439956,walking
1761225841820750000,-0.1369890249909833,-0.1158136600911617,0.0575508562147617,0.2992586493492126,0.5556369423866272,0.2644853889942169,walking
1761225841830763000,0.00660385981102,-0.3634259003907442,0.3602952011495828,0.2747727632522583,0.5449147820472717,0.3098499476909637,walking
1761225841840776000,0.0362331145690288,-0.6709113023728132,0.5331394929736852,0.2610993981361389,0.5057163238525391,0.3385041058063507,walking
1761225841850790100,0.0502791755781974,-0.8523159172713756,0.6393108799725771,0.250629186630249,0.4231849610805511,0.3459567129611969,walking
1761225841860803000,0.0391002949026413,-1.0429331816732883,0.7298486445099115,0.2349542677402496,0.3184597194194793,0.3293404579162597,walking
1761225841870816000,-0.0417489097152836,-1.2033423548161983,0.7691635868102311,0.1995768398046493,0.202582910656929,0.2893179655075073,walking
1761225841880829200,-0.174307751972787,-1.2438573205560446,0.7959563166677951,0.1486723721027374,0.0629793629050254,0.2309359908103943,walking
1761225841890841900,-0.262593664196413,-1.1926198852717875,0.7995832749933004,0.0732551142573356,-0.0353213734924793,0.1601443737745285,walking
1761225841900856000,-0.3012650661624967,-1.059110409492254,0.5766986487150192,-0.0104142017662525,-0.0353928953409194,0.1097093150019645,walking
1761225841910869200,-0.3232051318245008,-0.8574018422335385,0.1172299566298723,-0.0881132557988166,0.0479278266429901,0.0832843631505966,walking
1761225841920882000,-0.3545212208580225,-0.5666834506571292,-0.3177531134963035,-0.1448845267295837,0.1713427752256393,0.0673433244228363,walking
1761225841930895000,-0.3872648219440132,-0.2372872456401586,-0.6497533635318279,-0.1701624542474746,0.2793827056884765,0.0601708926260471,walking
1761225841940909000,-0.3316630905030295,0.050556467282772,-0.8140992916017771,-0.1596305072307586,0.3434412479400635,0.055759560316801,walking
1761225841950922000,-0.2652543530393392,0.1733008034199476,-1.0420336024850607,-0.1027469858527183,0.4280272424221039,0.0628022924065589,walking
1761225841960935200,-0.2507736269399523,0.2936976996481418,-1.4388433015614748,0.0057556331157684,0.5332552194595337,0.0542081482708454,walking
1761225841970948000,-0.2770783906174823,0.4457417800277471,-1.6131711099416015,0.1281441301107406,0.5976560711860657,0.0369953401386737,walking
1761225841980961000,-0.2097830065123736,0.6508867514759302,-1.3800854076445102,0.252966821193695,0.5940963625907898,0.0315327979624271,walking
1761225841990975200,-0.04619381509386,0.7851005761325359,-0.9463532143622636,0.3461854457855224,0.5557569861412048,0.0339786484837532,walking
1761225842000988000,0.2120457638125866,0.7735872484713793,-0.435536612355709,0.4081901013851166,0.4897651076316833,0.0494136922061443,walking
1761225842011001000,0.4279403850730508,0.7398463069111109,0.0964005190908908,0.4322144687175751,0.4209940433502197,0.0669998750090599,walking
1761225842021014000,0.6165569041118025,0.7473994987696408,0.5793839422762393,0.4155964851379394,0.3650214076042175,0.0893036872148513,walking
1761225842031027200,0.7677142647847532,0.787832631444931,0.9756418526887892,0.3668068349361419,0.3219934999942779,0.1141653582453727,walking
1761225842041041200,0.9459431722566484,0.7676239561527967,1.3237147011250257,0.2888063490390777,0.2741853892803192,0.1442741304636001,walking
1761225842051054000,1.095570985274762,0.6750310126513243,1.5611019000083206,0.2038848251104354,0.2511669099330902,0.1689911931753158,walking
1761225842061067000,1.2360095296651123,0.5756126070439815,1.6222171707063913,0.1076205372810363,0.2329509705305099,0.1981018036603927,walking
1761225842071080000,1.3068725796565412,0.5571364546328783,1.608497857433557,0.0222694221884012,0.2200133353471756,0.2292969971895218,walking
1761225842081093000,1.321293026936054,0.5840992803603411,1.552427010643482,-0.0483185797929763,0.1849315613508224,0.2545225322246551,walking
1761225842091107000,1.316537356841564,0.555083613756299,1.4944360094457865,-0.0957574695348739,0.1175178959965705,0.2765980064868927,walking
1761225842101120000,1.3578272524766624,0.4996031340748071,1.3787152883350848,-0.1154499799013137,0.0128137711435556,0.288114994764328,walking
1761225842111133200,1.3316009243302047,0.4120207122117281,1.2692659025788309,-0.121044747531414,-0.109864205121994,0.2892186045646667,walking
1761225842121145900,1.2314382762268186,0.3223790197312832,1.1841291203022002,-0.1369701772928238,-0.2372171133756637,0.2753219604492187,walking
1761225842131159000,1.1368745441090315,0.3186608759909868,1.1010650526463983,-0.1649123281240463,-0.3380899429321289,0.2611302435398102,walking
1761225842141173200,1.026038745495677,0.3217904061883688,0.8809551517784595,-0.203457310795784,-0.3751789927482605,0.2481646090745926,walking
1761225842151186000,0.8958836947105825,0.3561854277431964,0.5438754065215587,-0.2399290353059768,-0.3522902131080627,0.2353302985429763,walking
1761225842161199000,0.6770401605166494,0.3985924908399582,0.0297603474915027,-0.2597034275531769,-0.2430809289216995,0.2065332233905792,walking
1761225842171212000,0.4008131625641137,0.455745872169733,-0.4878974987119436,-0.2627657949924469,-0.0918117761611938,0.1633242219686508,walking
1761225842181225000,0.1340613740412518,0.4272176968216896,-0.9186264185249804,-0.2387327849864959,0.0909143164753913,0.1117296814918518,walking
1761225842191239200,-0.0493127599651459,0.4485556684046983,-1.135128650289774,-0.2000722140073776,0.2505833506584167,0.0583910904824733,walking
1761225842201252000,-0.0476619696839712,0.4409516231417655,-1.088057687035203,-0.151709645986557,0.3385060131549835,0.0182791221886873,walking
1761225842211265000,0.1060488748640753,0.39381460891366,-0.8121931657195091,-0.1114288121461868,0.3572765290737152,-0.0096475835889577,walking
1761225842221278000,0.3497082676183432,0.2709299875229597,-0.482840799844265,-0.0626694187521934,0.3600108921527862,-0.0268906075507402,walking
1761225842231291100,0.5667813580736517,0.1701233424276113,-0.3198521316021681,-0.0151338558644056,0.3742050230503082,-0.0210399087518453,walking
1761225842241305000,0.6946449369207024,0.2133487361699342,-0.181080789771676,0.0190411582589149,0.3718550503253937,-0.0084439553320407,walking
1761225842251318000,0.8018084036968648,0.237044084534049,0.1400830089509487,0.0344198495149612,0.3291259706020355,0.0027682185173034,walking
1761225842261331200,0.9555775543034076,0.1937766052156686,0.5632353560298681,0.0197622813284397,0.25129035115242,0.0165925528854131,walking
1761225842271343900,1.0851827161207794,0.0844382786184549,0.8967407499313353,-0.0253498032689094,0.1498398929834365,0.0355185717344284,walking
1761225842281358000,1.155727128617093,0.0374964947015047,1.1023965935111044,-0.0824353396892547,0.0745903775095939,0.0703425407409668,walking
1761225842291371000,1.170971094173938,0.0561637857705354,1.1996306408166886,-0.1544062197208404,0.0044800033792853,0.1093645095825195,walking
1761225842301384000,1.0869720837555823,0.0229798935711383,1.228887714961171,-0.2201454639434814,-0.0674313306808471,0.1425625085830688,walking
1761225842311397000,0.986161931528896,-0.0634410832971334,1.0980880826622248,-0.2719077169895172,-0.1039880141615867,0.1652742177248001,walking
1761225842321410000,0.8683185922410339,-0.1212953063726425,0.8323527411729097,-0.3066056072711944,-0.1139505058526992,0.176930770277977,walking
1761225842331424000,0.6658369217179715,-0.1788946779042482,0.5316705894649029,-0.3254594504833221,-0.0880952030420303,0.1815691888332367,walking
1761225842341437200,0.4621358654677868,-0.233974175569415,0.212668352690339,-0.3201418817043304,-0.0230821780860424,0.1789549589157104,walking
1761225842351449900,0.2873491708716377,-0.2473188103109598,-0.0050847559183835,-0.299893856048584,0.0154931768774986,0.1647629737854004,walking
1761225842361463000,0.1532831389215774,-0.311487623360753,-0.1111257945358753,-0.2483374327421188,0.0385438688099384,0.1291293054819107,walking
1761225842371476000,0.0195157063256017,-0.4176262771338224,-0.2891349217772483,-0.1602943986654281,0.0664583295583725,0.0708715766668319,walking
1761225842381490000,-0.0186794564308598,-0.429814727577567,-0.4068599684476852,-0.0702248737215995,0.0506844446063041,0.0140693141147494,walking
1761225842391503000,0.0246711711263284,-0.3756231186628341,-0.278754982060194,0.0094188163056969,-0.007648370694369,-0.0251515936106443,walking
1761225842401516000,0.2116232458178885,-0.3095353202491998,-0.1141448500961065,0.0781898126006126,-0.0561566613614559,-0.0290881022810935,walking
1761225842411529000,0.4073006979525089,-0.1911392424494028,-0.0163356332510709,0.1241450533270835,-0.1024557128548622,-0.0200884826481342,walking
1761225842421542000,0.5462513418726622,-0.1577080974906682,0.1836164457291364,0.1306422501802444,-0.1460099518299102,-0.003474230878055,walking
1761225842431556000,0.6752386640526354,-0.181638423654437,0.3577309036195278,0.1126041337847709,-0.1695016920566558,0.0154698994010686,walking
1761225842441569000,0.7397888045702129,-0.1955938837707042,0.4248457069933414,0.0825022682547569,-0.1793064326047897,0.0500371381640434,walking
1761225842451582000,0.7423394389010965,-0.1740302867382764,0.4951859021544456,0.0471554659307003,-0.2222200781106948,0.0783585235476493,walking
1761225842461595100,0.6955171897105872,-0.2124479879379272,0.5441466246783733,0.0241848081350326,-0.2806146740913391,0.0958230197429657,walking
1761225842471607800,0.5851428711291402,-0.2716004341304302,0.4552116191625595,0.0135787678882479,-0.3220625221729278,0.1027200743556022,walking
1761225842481622000,0.417975127104111,-0.3587865501523017,0.2536749013394117,0.0192286092787981,-0.3670752942562103,0.0871831178665161,walking
1761225842491635200,0.2185363862072117,-0.4550479530334472,0.0767775347322225,0.0362483412027359,-0.4122537076473236,0.0638229325413703,walking
1761225842501648000,0.0239241293184226,-0.4983645321905612,-0.1307902799487114,0.0672204792499542,-0.4528540372848511,0.0390136055648326,walking
1761225842511661000,-0.0878056909586302,-0.5423638329148293,-0.2993593786716461,0.0951730161905288,-0.4990817308425903,0.0051501793786883,walking
1761225842521674000,-0.1535108649965375,-0.6210539232701063,-0.3674246146380901,0.1056483387947082,-0.5492333769798279,-0.0307048428803682,walking
1761225842531688000,-0.179064773774147,-0.6682593265593052,-0.4122282174825668,0.1008628979325294,-0.5773278474807739,-0.0590533949434757,walking
1761225842541701000,-0.2008672575963661,-0.6710217770099639,-0.4614572355538606,0.0731042772531509,-0.5890758037567139,-0.0753265246748924,walking
1761225842551714000,-0.2540187646073289,-0.7177841127067804,-0.5420464375287294,0.0336215831339359,-0.5695266127586365,-0.0892729684710502,walking
1761225842561727000,-0.3422287985831498,-0.7148369533389807,-0.6573100625216961,-0.0166546925902366,-0.5078173875808716,-0.113336831331253,walking
1761225842571740000,-0.4762291996847838,-0.7213666473686695,-0.7547352484852076,-0.0680750012397766,-0.4346276521682739,-0.1456830501556396,walking
1761225842581753900,-0.6454159188494086,-0.6967530151158571,-0.8083411664664745,-0.113588161766529,-0.3541280031204223,-0.1860022395849228,walking
1761225842591767000,-0.7796179800029843,-0.6789888103663921,-0.7574117742180824,-0.1539401113986969,-0.2909264266490936,-0.2394428253173828,walking
1761225842601778400,-0.8379856324933469,-0.6889917334645986,-0.6150824476450681,-0.1948995143175125,-0.278858333826065,-0.2911044955253601,walking
1761225842611791400,-0.7111905596606433,-0.7100836213320493,-0.4975748431175947,-0.2221284657716751,-0.2611214220523834,-0.3156074285507202,walking
1761225842621804500,-0.5680069908784702,-0.5695423472195863,-0.5147849211156368,-0.2275120764970779,-0.257098913192749,-0.3196500241756439,walking
1761225842631818500,-0.3930013197693973,-0.386645447936654,-0.5412345366239547,-0.2189516127109527,-0.2852477133274078,-0.3072948157787323,walking
1761225842641831400,-0.325240254381299,-0.2574965054541826,-0.5635328776717186,-0.1844570785760879,-0.3089672327041626,-0.284700334072113,walking
1761225842651844600,-0.2338936394128017,-0.1143050090938806,-0.6514069759577512,-0.1279906183481216,-0.3328342139720917,-0.266766607761383,walking
1761225842661857500,-0.2313509326600469,-0.0017746084570884,-0.7507704365074634,-0.0533851608633995,-0.3465236723423004,-0.2436283081769943,walking
1761225842671870500,-0.2761556497493758,0.1211591127723455,-0.8831202208578586,0.0373410135507583,-0.3429243862628937,-0.2186848819255828,walking
1761225842681884400,-0.3021132439570501,0.2986737344950437,-1.0198130028486252,0.1425154209136963,-0.3231551647186279,-0.1923304349184036,walking
1761225842691897300,-0.3269543648228049,0.4146458000183105,-1.0054887094199656,0.2429014146327972,-0.3022392094135284,-0.184938833117485,walking
1761225842701910500,-0.3838411676382646,0.4859539634287357,-0.8967939414232968,0.3341847360134125,-0.2814450562000274,-0.1777347475290298,walking
1761225842711923700,-0.4704338843442499,0.5052162977814674,-0.7209492987394333,0.4088230431079864,-0.2412880361080169,-0.1832235306501388,walking
1761225842721936400,-0.5215225222749635,0.5062672681391239,-0.4671639227628708,0.4632621705532074,-0.2021233588457107,-0.2050375342369079,walking
1761225842731950600,-0.5800612935485318,0.4616553884744644,-0.1358037241965532,0.4922117888927459,-0.1733428537845611,-0.2344513535499572,walking
1761225842741963300,-0.5647703470448032,0.4499368936300277,0.247874106106162,0.4829994440078735,-0.1630378514528274,-0.272044837474823,walking
1761225842751976400,-0.5343569790046662,0.4368582163482904,0.6516384466260671,0.441687136888504,-0.1609720438718795,-0.2968958616256714,walking
1761225842761989600,-0.4590857937147841,0.4468605549246072,0.972884078413248,0.3728834390640259,-0.1644765138626098,-0.3303768932819366,walking
1761225842772002600,-0.4276016546379774,0.4763210426867008,1.2052654318332672,0.2827780544757843,-0.1639457494020462,-0.3632656037807464,walking
1761225842782016500,-0.4320431076841428,0.4631441657274961,1.426706873565912,0.1700611412525177,-0.1663451045751571,-0.3968343734741211,walking
1761225842792029400,-0.3425421023160219,0.4205295973598957,1.5494038634300231,0.0413987748324871,-0.1704679429531097,-0.411266565322876,walking
1761225842802042400,-0.2120377997018396,0.4377209706574678,1.5185446147859096,-0.0722881108522415,-0.1486254930496215,-0.4072166979312897,walking
1761225842812055600,-0.1595423637131229,0.5316524692863226,1.2336012994796035,-0.1603599041700363,-0.0832241028547287,-0.3956689834594726,walking
1761225842822069500,-0.1844075047752819,0.6776824039429425,0.8861667489469051,-0.2332036048173904,-0.0237096101045608,-0.3764504790306091,walking
1761225842832082400,-0.1933030694197863,0.817023654615879,0.7287859837144612,-0.2813245356082916,-0.0175912603735923,-0.3583804070949554,walking
1761225842842095400,-0.154003507351689,0.8314017240583896,0.748275697082281,-0.3258412778377533,-0.0716848969459533,-0.3318556547164917,walking
1761225842852108500,-0.0358855706398375,0.7160457446068524,0.739579180407524,-0.3482826650142669,-0.1703571528196334,-0.2873640656471252,walking
1761225842862121500,0.0768619616126641,0.6846282775580883,0.6052928750365972,-0.3499476611614227,-0.2326940596103668,-0.2215544581413269,walking
1761225842872135400,0.1506723353686742,0.7698550762057303,0.2440028176307678,-0.3207295835018158,-0.2395295947790146,-0.1350126415491104,walking
1761225842882148600,0.129762562602479,0.9148965843468904,-0.1794552343964576,-0.2539104223251343,-0.1865738332271576,-0.03419691324234,walking
1761225842892161300,0.0744031885500065,1.010411552774906,-0.4897451724052429,-0.1547878384590149,-0.1121861562132835,0.0601988285779953,walking
1761225842902174500,-0.0154263546527363,1.0001005866408348,-0.6659276687413453,-0.0276811681687831,-0.0303547158837318,0.135475143790245,walking
1761225842912187600,-0.1566356094209477,0.8584405376315116,-0.5976105038404464,0.0896095037460327,0.0031606315169483,0.1844312250614166,walking
1761225842922201300,-0.3281579684589058,0.6158738902837038,-0.1836795740932226,0.1835564523935318,-0.0231288149952888,0.2016572952270507,walking
1761225842932214500,-0.4020184467006474,0.3745107735067606,0.3255097189724445,0.245167076587677,-0.0692073553800582,0.2071870863437652,walking
1761225842942227700,-0.4211349428419023,0.1387368550390005,0.6773281836777925,0.2777445614337921,-0.0960219427943229,0.2131887674331665,walking
1761225842952240400,-0.4535410556018352,-0.0259539409458637,0.8834674268603324,0.2759772837162018,-0.1076485067605972,0.2062411159276962,walking
1761225842962253600,-0.5701788184922189,-0.1763245351552963,1.1243109036773442,0.2421183437108993,-0.1248600333929061,0.1915861964225769,walking
1761225842972267300,-0.662556804068759,-0.3053986588358879,1.2462836709201337,0.1944123357534408,-0.1130441203713417,0.1728497892618179,walking
1761225842982280400,-0.7231149523407221,-0.4102501954078674,1.2399281644135711,0.1243102997541427,-0.0660908594727516,0.1416326612234115,walking
1761225842992293600,-0.8472953126303852,-0.5745324105918407,1.2861521554499864,0.0203918926417827,-0.0157174319028854,0.1033859476447105,walking
1761225843002306600,-0.8853012181587516,-0.6658540189832448,1.4634996039122343,-0.0924248993396759,0.0028426086064428,0.0737981423735618,walking
1761225843012319500,-0.8306632537160068,-0.6967448318094015,1.5564017594933508,-0.2109470069408416,0.002414905000478,0.0647378042340278,walking
1761225843022333400,-0.7239139937639236,-0.6814601689159869,1.4750485874086618,-0.2996692359447479,0.0124664846807718,0.0688723772764206,walking
1761225843032346400,-0.6829844558738172,-0.5992892507076263,1.1459674396902322,-0.3494019210338592,0.0362437218427658,0.0773936882615089,walking
1761225843042359600,-0.7238710314050316,-0.4431599468410014,0.7225210781008005,-0.3595079779624939,0.0612364113330841,0.089177630841732,walking
1761225843052372500,-0.7831651510905474,-0.2802648021012544,0.4070540297150611,-0.3281159698963165,0.0659510046243667,0.094148151576519,walking
1761225843062385700,-0.8151854794032871,-0.1971522191286087,0.1778559825062751,-0.2715401649475097,0.0345728807151317,0.1050429418683052,walking
1761225843072399400,-0.8200892527315765,-0.1563607745349407,-0.0058417117655277,-0.2060067057609558,-0.0098891239613294,0.115004763007164,walking
1761225843082412500,-0.9055572397239504,-0.1825596301525831,-0.1879062518775463,-0.135150521993637,-0.032870914787054,0.1103633418679237,walking
1761225843092425500,-1.0300456430494784,-0.2447404842555522,-0.4031336414009332,-0.0766933411359787,0.0021038476843386,0.1014769077301025,walking
1761225843102438400,-1.1486593091227113,-0.2966431054502725,-0.6100584820032119,-0.0152955250814557,0.0836710631847381,0.086710900068283,walking
1761225843112451600,-1.1643558407526462,-0.3675046941369772,-0.7009931369036436,0.032088503241539,0.1574123948812484,0.0699998289346695,walking
1761225843122465300,-1.1437820584751666,-0.4789619125843047,-0.6626233664989472,0.0779019221663475,0.2267214953899383,0.0481769181787967,walking
1761225843132478500,-1.1171633700102568,-0.5235919124275445,-0.5620861859947442,0.1102020740509033,0.285132348537445,0.0188408698886632,walking
1761225843142491600,-1.1372159779578446,-0.6077016897439956,-0.4500193112164735,0.1505432426929474,0.3422853052616119,-0.018812334164977,walking
1761225843152504300,-1.1484924281232058,-0.6572773292958736,-0.4371335261583328,0.2026767581701278,0.424388438463211,-0.0610050596296787,walking
1761225843162517500,-1.1659035816513,-0.6409370198696851,-0.4284387630492448,0.2499544620513916,0.4857112467288971,-0.1070496961474418,walking
1761225843172531700,-1.0462117649525404,-0.6160808110326528,-0.2486608725696802,0.2861886322498321,0.515413224697113,-0.146982729434967,walking
1761225843182544400,-0.7904454442918301,-0.6347077700912952,0.0212859491348266,0.3051202595233917,0.5483341217041016,-0.1615283787250518,walking
1761225843192557600,-0.4254284753173589,-0.6701052466869354,0.2128220819473266,0.3055357038974762,0.6007286310195923,-0.1512070298194885,walking
1761225843202570500,-0.0145682536857901,-0.7394406487196683,0.4564034592956304,0.2835451960563659,0.6428419947624207,-0.1156224161386489,walking
1761225843212583400,0.3592547887185588,-0.809442405706644,0.7960358116447925,0.2360661029815673,0.6380533576011658,-0.0660612508654594,walking
1761225843222597600,0.637105259687081,-0.8553408180505037,1.1437176149368284,0.1658893227577209,0.5892813205718994,-0.0145445615053176,walking
1761225843232610600,0.8096923618797213,-0.9423398870676756,1.3990426215708256,0.0861233919858932,0.4959806203842163,0.0246523767709732,walking
1761225843242623500,0.8956549274560064,-1.0633119528353214,1.5044418551534413,-0.0077592767775058,0.3575125336647033,0.0481122210621833,walking
1761225843252636400,0.8592414787508547,-1.121450253549218,1.4885826072424648,-0.1083561927080154,0.2108208388090133,0.0651042535901069,walking
1761225843262649600,0.7385106013279408,-1.0376865131914614,1.2764607825189829,-0.2083267867565155,0.090081587433815,0.076552040874958,walking
1761225843272663600,0.4829640608977526,-0.8490022626787423,0.8098889804303646,-0.2744165956974029,0.0636923238635063,0.1012757644057273,walking
1761225843282676500,0.1971616628103889,-0.5756400795727968,0.0791553697794675,-0.306583821773529,0.1603084355592727,0.1251287460327148,walking
1761225843292689700,-0.0924753450037911,-0.3171627463877201,-0.7000549792706966,-0.2973069548606872,0.3319307863712311,0.135915607213974,walking
1761225843302702300,-0.3736855381963774,-0.1602536903202533,-1.2473919244229792,-0.2623052895069122,0.4989019334316253,0.1323104947805404,walking
1761225843312715500,-0.4888159287311136,-0.0576776974648237,-1.4966303046196698,-0.1777320951223373,0.6300559639930725,0.1372464001178741,walking
1761225843322729500,-0.3775253355549648,0.0460872129142284,-1.6602783135533332,-0.0568540394306182,0.7283215522766113,0.1533175110816955,walking
1761225843332742400,-0.1640000920406542,0.1593389135628938,-1.582051164534688,0.0591087788343429,0.739332377910614,0.1777898222208023,walking
1761225843342755600,0.1176351398972794,0.2024368815332651,-1.1490776806652545,0.1589745879173278,0.6541202068328857,0.2173273563385009,walking
1761225843352768500,0.3543011118339374,0.1728349394738674,-0.7690010897248983,0.2491790354251861,0.5683861374855042,0.2611182332038879,walking
1761225843362781400,0.5300589895498007,0.1530827757775783,-0.4835439796775579,0.3117345869541168,0.4795232713222503,0.295650452375412,walking
1761225843372795600,0.5318492705000564,0.1305593938022851,-0.1975397571414709,0.3328321278095245,0.3972366452217102,0.3140978813171386,walking
1761225843382808300,0.48803698024787,0.1212637421905994,0.1047089132308959,0.3200549185276031,0.3620694577693939,0.3246061205863952,walking
1761225843392821500,0.4668799547223374,0.0919254195034503,0.2305722581714391,0.2896511852741241,0.3713306188583374,0.3316858410835266,walking
1761225843402834400,0.4292562899772078,0.0859182880431413,0.3432341762334108,0.2399175465106964,0.3872531056404114,0.3239783942699432,walking
1761225843412847600,0.3973917732806876,0.0781686968296766,0.5378735357582569,0.1759667992591858,0.3806583285331726,0.3091049194335937,walking
1761225843422861600,0.413376474202238,0.089108023995161,0.6433376512706279,0.1349219232797622,0.3809547126293182,0.2954961061477661,walking
1761225843432874500,0.5330944847881793,0.1606143403261899,0.6330757849752903,0.0958440229296684,0.3981635272502899,0.2932816743850708,walking
1761225843442887400,0.6865145296961068,0.2488806528002023,0.5985925006151199,0.0669378638267517,0.4165449738502502,0.2987473607063293,walking
1761225843452900400,0.7728622951976954,0.2923936313122511,0.5964864682465791,0.0438858084380626,0.4186959862709045,0.2824940979480743,walking
1761225843462913500,0.785105836829543,0.3099216892182826,0.665066667997837,0.0233380179852247,0.3945512473583221,0.2619363367557525,walking
1761225843472927500,0.8581417008154094,0.296472425058484,0.8117091815948486,-0.0036810827441513,0.3252504765987396,0.247295081615448,walking
1761225843482940400,0.985417835163325,0.23661329190135,0.9377508057117462,-0.02338208258152,0.2307897359132766,0.2376933246850967,walking
1761225843492953600,1.0511169265203175,0.1685825427263975,1.0357336255580187,-0.0556169860064983,0.1106148734688758,0.2201588153839111,walking
1761225843502966500,0.958967123676464,0.1617564960986375,1.127954228615761,-0.0952004194259643,-0.009146174415946,0.1868586093187332,walking
1761225843512979500,0.7343094233110546,0.1256318742722272,1.0117594602525233,-0.1299043446779251,-0.0538422763347625,0.1360726654529571,walking
1761225843522993700,0.4701245991993695,0.1519686770558357,0.5872077677696943,-0.1514199823141098,0.0216233935207128,0.0852400213479995,walking
1761225843533006300,0.205203533235006,0.2887409540235996,0.1032668977290391,-0.1717369705438614,0.1629941016435623,0.0355126745998859,walking
1761225843543019500,0.0608211100570857,0.4565361457645893,-0.1547422334223985,-0.1873484402894973,0.3249528408050537,-0.0007234757067635,walking
1761225843553032400,0.0294818593436852,0.6141565649718046,-0.2142845557153224,-0.1965435445308685,0.4675030708312988,-0.0160318575799465,walking
1761225843563045400,0.1562450757334008,0.6587123305350542,-0.1035129814445972,-0.1954543441534042,0.5417155623435974,-0.0189855247735977,walking
1761225843573059600,0.3528666585840284,0.6029051031172276,0.1256967562019824,-0.1870451420545578,0.5595076084136963,-0.0218801163136959,walking
1761225843583072500,0.5055264962418005,0.5219570047020912,0.4148217411071062,-0.1764676570892334,0.4966472089290619,-0.0201143100857734,walking
1761225843593085400,0.6884134951852262,0.4863876786708832,0.5984399404019117,-0.1350118219852447,0.4162514507770538,-0.0057966238819062,walking
1761225843603101700,0.8475192575793713,0.4738368246555328,0.5463163699328899,-0.0697552859783172,0.3598515093326568,0.0105441799387335,walking
1761225843613115000,0.9174252260416744,0.4799982698947191,0.4486982917457818,-0.0077899182215332,0.3148850798606872,0.0254983622580766,walking
1761225843623128800,0.8754065777406096,0.4417103325545787,0.5549117643207311,0.0034075886942446,0.2618109881877899,0.0256294328719377,walking
1761225843633141800,0.8350118043143302,0.3055693392276764,0.8466519001603126,-0.0241926126182079,0.1889721751213073,0.0160865280777215,walking
1761225843643155000,0.8031391408439725,0.1480138019502163,1.1578805803239345,-0.0942132696509361,0.1206877008080482,0.0129669439047575,walking
1761225843653167600,0.8658442380167544,0.064475102519989,1.3085387593030928,-0.1749525815248489,0.0759753584861755,0.0251961797475814,walking
1761225843663180800,0.8542924049761146,0.1012304234653711,1.2244447640776637,-0.2459450960159301,0.0446352884173393,0.0465307794511318,walking
1761225843673195000,0.8182664942838251,0.1726478924691677,1.0314888275951146,-0.2942098081111908,0.0223217271268367,0.0613027997314929,walking
1761225843683207700,0.7074681781366468,0.2141863560378551,0.6945049439281225,-0.3048208057880401,0.0190270561724901,0.0799208581447601,walking
1761225843693220900,0.619038857120648,0.2514209849327802,0.3702513624966144,-0.292917788028717,0.0019844234921038,0.0824434086680412,walking
1761225843703233800,0.5296435406167059,0.2488742230594158,0.1998480340838432,-0.2675127387046814,-0.022518265992403,0.0790758207440376,walking
1761225843713246700,0.4450677532237023,0.203559748083353,0.0241904384046793,-0.2297863960266113,-0.0310502350330352,0.0690436959266662,walking
1761225843723261000,0.4479879515193402,0.1383966632992029,-0.17795885835886,-0.1840616762638092,-0.0382009856402874,0.0675980076193809,walking
1761225843733273900,0.5475014149989933,0.1899655224949121,-0.330081849193573,-0.1263611018657684,-0.0512518063187599,0.0865594446659088,walking
1761225843743286800,0.6583164630852639,0.2840080802828073,-0.4259422700583934,-0.0637667700648307,-0.0886022746562957,0.1181293949484825,walking
1761225843753299700,0.6635574324786663,0.2781605232983827,-0.4979810858309269,0.0034040152095258,-0.1231384053826332,0.1506447196006775,walking
1761225843763313000,0.654690308477357,0.2350467732369899,-0.5611661485403776,0.0806207135319709,-0.1745045632123947,0.1632666438817978,walking
1761225843773326800,0.5352440640375018,0.1508598390311002,-0.5497527741223573,0.1566052138805389,-0.2501601874828338,0.1535245329141616,walking
1761225843783339800,0.3703280079293995,0.0254705413430929,-0.4568938731610775,0.2165407538414001,-0.3415194451808929,0.1354059427976608,walking
1761225843793353000,0.2794613767638802,-0.0274772049903869,-0.3473953875660896,0.2653633952140808,-0.4301861822605133,0.1160556823015213,walking
1761225843803365600,0.2536722709909081,-0.0432213020890951,-0.3332756767988205,0.2945269346237182,-0.4984350800514221,0.1108142212033271,walking
1761225843813378800,0.2172279522234574,-0.0590209287673234,-0.3493570430278778,0.3025155961513519,-0.5518543720245361,0.1156116425991058,walking
1761225843823392800,0.1902814931089058,0.0112187286287546,-0.4152648086994886,0.3108703792095184,-0.5634024143218994,0.1271103769540786,walking
1761225843833405700,0.134897021147795,0.026755320456624,-0.596639612981677,0.3173794150352478,-0.5058512687683105,0.1337887793779373,walking
1761225843843419000,0.0604470160476863,-0.1103571482509374,-0.7879659024357796,0.3146146237850189,-0.4043193757534027,0.1230095326900482,walking
1761225843853431800,-0.0497178427678532,-0.4262847998857498,-0.8331587968587875,0.2919793725013733,-0.328870415687561,0.0891274660825729,walking
1761225843863444700,-0.113939865575917,-0.7568518022477626,-0.622100801974535,0.245791882276535,-0.3001175820827484,0.0302061326801776,walking
1761225843873459000,-0.17337788724415,-1.0282575905889273,-0.3104664636194705,0.1673841476440429,-0.3200803697109222,-0.0420060120522975,walking
1761225843883471600,-0.2822839233713224,-1.2323445774167776,0.0655886167198419,0.0279096402227878,-0.3975533545017242,-0.1337333023548126,walking
1761225843893484800,-0.3941605362745001,-1.4689070159137247,0.485250199073553,-0.1640288978815078,-0.5545206069946289,-0.2638375163078308,walking
1761225843903497700,-0.548077680516988,-1.612937301185727,0.7667781529784202,-0.3792802393436432,-0.7102802991867065,-0.39130300283432,walking
1761225843913511000,-0.6898467428587377,-1.414584474095702,0.6299550226062536,-0.5675428509712219,-0.7756510376930237,-0.4691839814186096,walking
1761225843923524900,-0.7569717753656208,-0.8541302732169628,-0.0840980868786573,-0.6870816946029663,-0.7116833329200745,-0.4905412197113037,walking
1761225843933537800,-0.875494402154535,-0.1845680473655462,-1.0223024815768005,-0.7076287865638733,-0.566994845867157,-0.4674561321735382,walking
1761225843943550700,-1.012978919044882,0.4583610231041908,-1.8191040168970825,-0.6384897232055664,-0.3831422328948974,-0.4177390038967132,walking
1761225843953563600,-0.9822696733307092,0.9638508771300316,-2.441910336792469,-0.478724330663681,-0.171832650899887,-0.3516579866409302,walking
1761225843963576800,-0.8098549320302904,1.2727718648731707,-2.855093078520894,-0.2601855993270874,0.0060467990115284,-0.274260401725769,walking
1761225843973590800,-0.6469900362983345,1.4116875836104157,-2.9015245748281475,0.0032324681524187,0.1413646787405014,-0.1914595365524292,walking
1761225843983603700,-0.5520066905289888,1.4463620066285132,-2.614779763057828,0.2649640440940857,0.2184161692857742,-0.1182070150971412,walking
1761225843993617000,-0.4397506863867864,1.3131822011947631,-2.036168558719754,0.5112335085868835,0.2250554263591766,-0.0732256919145584,walking
1761225844003629600,-0.3296831321995705,1.09720194747746,-1.2069652214884756,0.6894176006317139,0.1456955820322036,-0.0419815257191658,walking
1761225844013642800,-0.1972940387520939,0.8761316771447658,-0.2726636794477701,0.796697199344635,0.0100365541875362,-0.0212869010865688,walking
1761225844023657000,-0.05218395888675,0.5934498770296573,0.5867559323489666,0.8411742448806763,-0.1523039191961288,-0.0013460067566484,walking
1761225844033669600,0.02862195457872,0.3115314625024795,1.229988369679451,0.8077297210693359,-0.324675977230072,-0.0006317470688372,walking
1761225844043682800,-0.0502078547745011,0.0384106869369745,1.8224883986383675,0.6968789100646973,-0.4894299805164337,-0.0348367802798748,walking
1761225844053695700,-0.2204651805790141,-0.2301484798014164,2.215735436797142,0.5227119326591492,-0.5841665863990784,-0.0886329039931297,walking
1761225844063708700,-0.4267029887652024,-0.3288268806964158,2.3507710992306468,0.2727725207805633,-0.5990570783615112,-0.1482243090867996,walking
1761225844073723000,-0.6233515326879918,-0.3941331733435392,2.2278554981797933,0.0103158839046955,-0.5391551852226257,-0.2041680067777633,walking
1761225844083735800,-0.733949796218425,-0.33376141448915,1.786785801616311,-0.2284896373748779,-0.4059911966323852,-0.2491239458322525,walking
1761225844093748700,-0.7853432988472282,-0.0935159035652875,1.2619903586179018,-0.4342555701732635,-0.2725481688976288,-0.2795398831367492,walking
1761225844103761700,-0.7953997056983411,0.1943710639774799,0.8356769171595573,-0.5963461399078369,-0.1825153827667236,-0.2856344878673553,walking
1761225844113774800,-0.6941850643239915,0.4673533078551292,0.3908814780712127,-0.6840109825134277,-0.1089839041233062,-0.2621051967144012,walking
1761225844123788800,-0.5398863368853927,0.6897925284534693,-0.1106418104112148,-0.6987807750701904,-0.0392349287867546,-0.2272790521383285,walking
1761225844133801700,-0.4122891904221847,0.8631050223112106,-0.5483411537587642,-0.6553515195846558,-0.012089061550796,-0.1803988963365554,walking
1761225844143815000,-0.2193910850740969,1.0212035804241897,-0.7950608291327953,-0.5631541609764099,-0.0271201580762863,-0.1135380268096923,walking
1761225844153827600,-0.0150891677207779,1.1344862607330084,-0.9460323118448256,-0.4289471209049225,-0.0253592729568481,-0.0183308199048042,walking
1761225844163840800,0.1766984830342233,1.2134469847232103,-1.1370219166904687,-0.2574265003204345,-0.0352566465735435,0.1005625426769256,walking
1761225844173854700,0.2843263341854326,1.3067021915256976,-1.1479144821047782,-0.0647337436676025,-0.0685506910085678,0.2095255106687545,walking
1761225844183867600,0.1721903031610883,1.2183698280781508,-1.0246353084385391,0.128518596291542,-0.1096233874559402,0.27992844581604,walking
1761225844193880800,-0.1055612192112952,0.9401362395435572,-0.8881722435504198,0.3042704463005066,-0.1093690544366836,0.2997530102729797,walking
1761225844203893800,-0.4139098138939589,0.6138128661006689,-0.6587415566295385,0.4334511756896972,-0.101295955479145,0.284263014793396,walking
1761225844213906700,-0.5587779016969725,0.3495604566454887,-0.208099145078659,0.5033642053604126,-0.1072201579809188,0.2512113153934479,walking
1761225844223919900,-0.6249469121206551,0.1474725346803665,0.2399146715342998,0.5121626257896423,-0.1051006838679313,0.2238379120826721,walking
1761225844233933600,-0.5849640439635142,-0.0061070847034454,0.6707248398900032,0.4701284170150757,-0.0930541455745697,0.1965261250734329,walking
1761225844243946800,-0.557093017349951,-0.1940115830153226,1.0547621511548757,0.3784850537776947,-0.0798358395695686,0.1586945503950119,walking
1761225844253960000,-0.5967652851879597,-0.4015723834335803,1.4357979425162075,0.247082307934761,-0.0601188652217388,0.1120253130793571,walking
1761225844263972900,-0.6107633058043196,-0.5343821865111589,1.724119794344902,0.0796479359269142,-0.0498091056942939,0.0645454823970794,walking
1761225844273986800,-0.571000254410319,-0.5746060603499412,1.911837830173969,-0.0938596725463867,-0.0436534732580184,0.0434607081115245,walking
1761225844283999700,-0.4796710472343489,-0.5227086998522281,1.913699532392621,-0.248979777097702,-0.0373575799167156,0.049824308604002,walking
1761225844294012700,-0.3608299656134098,-0.3836526958614588,1.7172200979590415,-0.3680734038352966,-0.0342970751225948,0.0733599886298179,walking
1761225844304025900,-0.3901244126262143,-0.2616425192177296,1.3551269074767829,-0.4357357919216156,-0.0337674058973789,0.0977728813886642,walking
1761225844314038800,-0.5140078723285347,-0.1622603539675474,0.932413536337018,-0.4467397034168243,-0.0475087873637676,0.1132320016622543,walking
1761225844324052000,-0.6203500858496874,-0.0435498033910989,0.5692313815742731,-0.4214839339256286,-0.0938400849699974,0.126692920923233,walking
1761225844334065700,-0.7101328673012555,-0.0071323360979557,0.2469289342105388,-0.3619343340396881,-0.1305166035890579,0.1454285234212875,walking
1761225844344078800,-0.8632106746427715,-0.0133212538659572,-0.254916425833106,-0.2516342401504516,-0.1018496230244636,0.1568765342235565,walking
1761225844354091800,-1.058331972465664,0.0328244112372398,-0.8496493284106255,-0.1188428997993469,-0.0299437455832958,0.1556070148944854,walking
1761225844364104700,-1.2795343447454273,0.0708791243433952,-1.1557137576788663,0.0145092671737074,0.0329672247171402,0.1338752210140228,walking
1761225844374118000,-1.4503271108672022,0.0773947898477315,-1.1747890450268983,0.1425537914037704,0.0706304460763931,0.1043983027338981,walking
1761225844384131600,-1.54136230353266,-0.0234603705644607,-1.0080109213739632,0.2491319626569748,0.0889097526669502,0.070905290544033,walking
1761225844394144800,-1.519799729413539,-0.1321434481233358,-0.6808569423258304,0.3174859881401062,0.0764120742678642,0.03497951105237,walking
1761225844404158000,-1.466581203314662,-0.2225561249762773,-0.2645493465751409,0.3500314652919769,0.0365676246583461,0.0044662123546004,walking
1761225844414170600,-1.4178935986436902,-0.2919669303327799,0.1529892522752285,0.3491917550563812,-0.0139650572091341,-0.0126163680106401,walking
1761225844424183800,-1.317151104825735,-0.3432873677253722,0.4280611619085073,0.3278199136257171,-0.0249073058366775,-0.0270800609141588,walking
1761225844434197800,-1.217635522454232,-0.3710258540004492,0.5253612601876259,0.2888426780700683,0.0025261840783059,-0.0394056998193264,walking
1761225844444210700,-1.146796364795044,-0.4189408668637275,0.6108423258572816,0.2319802194833755,0.0332113616168499,-0.0518099516630172,walking
1761225844454224000,-1.113830864586681,-0.4229799131214618,0.7134218258440495,0.1640515029430389,0.064390055835247,-0.0472735203802585,walking
1761225844464236800,-1.051180785536766,-0.4161176261365413,0.6947761620849371,0.1078442186117172,0.1220549643039703,-0.0490991845726966,walking
1761225844474249700,-1.1677408800810576,-0.4847884267807006,0.4871773677438497,0.0754468664526939,0.1929027736186981,-0.0773438736796379,walking
1761225844484264000,-1.2730100575432182,-0.5797820016831159,0.2488759766250848,0.0696029290556907,0.2430394440889358,-0.1169495284557342,walking
1761225844494276900,-1.2621695145770906,-0.5441501318097114,0.0890881502509117,0.0927894711494445,0.2769278883934021,-0.1559134274721145,walking
1761225844504289800,-1.1710144949242471,-0.5110124168395995,-0.1086643728584051,0.1411322206258773,0.3487978279590606,-0.179390475153923,walking
1761225844514302700,-0.9472110002353789,-0.483310755443573,-0.2896329344272613,0.1966993361711502,0.423524796962738,-0.1748194396495819,walking
1761225844524316000,-0.6175719994384795,-0.4364402831971645,-0.2049135007798671,0.2379121631383896,0.4596167206764221,-0.1516628116369247,walking
1761225844534329900,-0.260317736887373,-0.4462368700683116,0.1529571035712957,0.2368948310613632,0.4462353885173797,-0.1184721067547798,walking
1761225844544342800,0.0452485701330006,-0.5841092172324657,0.6030266836702823,0.2006494700908661,0.3809235095977783,-0.0861503481864929,walking
1761225844554356000,0.2896996064553037,-0.7701070051401853,0.9345517174094916,0.1520518362522125,0.2650773525238037,-0.0542198456823825,walking
1761225844564368600,0.43250652394481,-0.8969973550409078,1.0917845986038446,0.1099387556314468,0.1124201342463493,-0.0282008033245801,walking
1761225844574381800,0.4258717986380681,-0.8966343669474124,0.977005542257428,0.085881620645523,-0.0176923312246799,-0.0115544507279992,walking
1761225844584395800,0.302813957838621,-0.7896101625114679,0.6161328334808349,0.0835601389408111,-0.0927103832364082,-0.0033082384616136,walking
1761225844594408700,0.0810435216136276,-0.6597030951380729,0.1795434972018003,0.0799310505390167,-0.0685094371438026,-0.010715021751821,walking
1761225844604421600,-0.1737663568387739,-0.5899141041189432,-0.2331114212602376,0.0693756863474845,0.0192981977015733,-0.0313134789466857,walking
1761225844614434800,-0.3552702125944197,-0.479841618028283,-0.4260276102542877,0.0437414310872554,0.1144995465874672,-0.0576380267739295,walking
1761225844624447500,-0.3588398512421175,-0.3523404427528381,-0.3712210843116045,0.0024294697213917,0.1590520143508911,-0.0824183374643325,walking
1761225844634461700,-0.3234989636719226,-0.3258528333216905,-0.2763233709990978,-0.0271846149116754,0.2220394909381866,-0.1022636815905571,walking
1761225844644474600,-0.2652855336288921,-0.3018237229585647,-0.4385854785323143,-0.0407668352127075,0.296382337808609,-0.1219431608915329,walking
1761225844654487600,-0.2239513421943411,-0.1273661507189273,-0.515700282394886,-0.0341731160879135,0.3197054862976074,-0.1356179565191269,walking
1761225844664500700,-0.1494449489981867,0.0384673855602741,-0.4629202938437461,-0.0035371123813092,0.3220999836921692,-0.1411163955926895,walking
1761225844674513700,0.0032029607597738,0.1886637922465801,-0.498877742409706,0.0469111464917659,0.3181259930133819,-0.1365168392658233,walking
1761225844684526600,0.2077283390048891,0.3570464284867048,-0.5212351201683283,0.1079087331891059,0.3112334609031677,-0.1118127331137657,walking
1761225844694540500,0.3605947320854291,0.5216530533194541,-0.4349456607252359,0.1623314917087555,0.2963381111621856,-0.0790044516324997,walking
1761225844704553700,0.5013637505391613,0.6878028159409761,-0.2451671852350234,0.2029285579919815,0.2699662744998932,-0.0437366925179958,walking
1761225844714566700,0.6075480335522443,0.7458727275937795,-0.0259638778179883,0.2172300070524215,0.2504914104938507,-0.003681153524667,walking
1761225844724579600,0.6854789761032909,0.7717582794785499,0.1388835700333118,0.221641257405281,0.2509529292583465,0.028014725074172,walking
1761225844734592800,0.7224777504157275,0.7546300345450639,0.2513713005721569,0.2159674018621444,0.2616218030452728,0.0453612245619297,walking
1761225844744606500,0.7478728153698145,0.7347235570698976,0.3687485567182302,0.198013424873352,0.2717218399047851,0.0545403435826301,walking
1761225844754619600,0.8220344685152172,0.7236807695299387,0.4803840543419122,0.1808224618434906,0.3028070628643036,0.0737569108605384,walking
1761225844764632600,0.998457934000343,0.6837275293260813,0.499237807893753,0.1590480655431747,0.3261209726333618,0.0962287262082099,walking
1761225844774645500,1.1435109864488244,0.6402572209119797,0.6180418819725513,0.1247822344303131,0.2986400723457336,0.1118550896644592,walking
1761225844784658700,1.2340746160797773,0.5718541312932968,0.8837035737037658,0.0819957107305526,0.2320377379655838,0.1171519383788108,walking
1761225844794672600,1.3148704465426504,0.474008089569211,1.035518521502614,0.0410895533859729,0.1592764556407928,0.121071308851242,walking
1761225844804685600,1.3472346929222343,0.3769505678743123,1.0381991388887166,0.0032823449000716,0.0822838023304939,0.1137435510754585,walking
1761225844814698800,1.3575083957858385,0.2530459557861089,0.9182885648727416,-0.0239857621490955,0.0179700590670108,0.1035835891962051,walking
1761225844824711700,1.3623986520454288,0.231087221956253,0.7273889763981104,-0.0475150905549526,-0.0211918093264102,0.0925718322396278,walking
1761225844834724600,1.3140414483726024,0.2924181812316179,0.5847796638399362,-0.0765230432152748,-0.0541423037648201,0.0875962525606155,walking
1761225844844738800,1.238857466442138,0.368928004938364,0.5131780704408884,-0.1243616119027137,-0.0774853900074958,0.0904855877161026,walking
1761225844854751500,1.0987653243366629,0.4299585199624299,0.4306009095191955,-0.1761550307273864,-0.0818569660186767,0.0833238139748573,walking
1761225844864764700,0.965366980781406,0.419492071005702,0.2526572487294674,-0.2282401174306869,-0.0453738793730735,0.0718846246600151,walking
1761225844874777600,0.7840713792152703,0.4245376639574766,-0.1076969891309738,-0.2546983659267425,0.0309922657907009,0.059115033596754,walking
1761225844884790800,0.6031804129272699,0.523738627421856,-0.4939461312264204,-0.2550137937068939,0.1341885030269622,0.0380063876509666,walking
1761225844894804700,0.4821010873928665,0.6132634155243635,-0.8279887007445097,-0.2430306524038314,0.2855977416038513,0.0098876664415001,walking
1761225844904817700,0.4169628447890281,0.6116834528565407,-1.0312474200546742,-0.2225796282291412,0.4567003548145294,-0.0053457878530025,walking
1761225844914830600,0.4164402091544121,0.6101794780343771,-0.9903595293492078,-0.2051095515489578,0.5918757915496826,-0.0121520282700657,walking
1761225844924843500,0.5596145351842046,0.593206131401658,-0.6840916864633559,-0.1887682229280471,0.6594011783599854,-0.0105160977691411,walking
1761225844934856700,0.817485280778259,0.4999181913733482,-0.2239583929896354,-0.178671658039093,0.6507746577262878,0.000981833320111,walking
1761225844944870700,1.0967553727537394,0.3521417053103446,0.1973392661333084,-0.1778116673231125,0.5820046067237854,0.0302208568900823,walking
1761225844954883600,1.374086897882074,0.2684463540136814,0.549518380844593,-0.1708267331123352,0.4603759050369262,0.0863309949636459,walking
1761225844964896800,1.5660732586801052,0.3037830403327942,0.7622013465821743,-0.157559186220169,0.323228657245636,0.160164937376976,walking
1761225844974909400,1.669262707258761,0.2945557777822017,0.8275339427143334,-0.1443091630935669,0.2010808885097503,0.2322260737419128,walking
1761225844984922600,1.590961470090598,0.2439174774348735,0.7999883486628532,-0.1372461318969726,0.0916026607155799,0.293310284614563,walking
1761225844994935600,1.413458100414276,0.2306219425320625,0.7057482224762439,-0.1295368075370788,0.020123416557908,0.3416154980659485,walking
1761225845004949500,1.2001902474608273,0.2208329544454813,0.5086597162336111,-0.1164438053965568,-0.0031955307349562,0.3864082098007202,walking
1761225845014962700,0.8999947832912206,0.1927536919087171,0.2202232981145381,-0.0971018001437187,0.0296116843819618,0.4189107716083526,walking
1761225845024975600,0.5464964757401496,0.1716986289203166,-0.076116440474987,-0.0582951866090297,0.1018216907978057,0.4185938239097595,walking
1761225845034988500,0.1448799609038978,0.071636664712429,-0.2204968543589115,-0.0296654049307107,0.1712076812982559,0.3862318992614746,walking
1761225845045001500,-0.2018298555508255,-0.0423643929988145,-0.1411819101035595,-0.0141304042190313,0.2155430614948272,0.3268978297710418,walking
1761225845055015700,-0.306396839560382,-0.2081055748194456,0.0764700762182474,-0.0137815289199352,0.2410335093736648,0.2720625698566437,walking
1761225845065028600,-0.224159249323979,-0.3269125715076923,0.2291436866730451,-0.0082482285797595,0.2705112099647522,0.2320011556148529,walking
1761225845075041500,-0.1418050469705835,-0.4206441636502742,0.350137964272499,-0.0179703645408153,0.2580286860466003,0.1888331770896911,walking
1761225845085054700,-0.0492782275078818,-0.4321808721870184,0.5398977350622415,-0.0390852764248847,0.215088203549385,0.1510225087404251,walking
1761225845095067400,0.0742073554506525,-0.3885983355700969,0.7276829909086227,-0.0586035847663879,0.1505648642778396,0.1382321417331695,walking
1761225845105081600,0.2620087952468544,-0.2617582545518875,0.8375146539807319,-0.0717535465955734,0.0566768273711204,0.1587696671485901,walking
1761225845115094800,0.4391599539520219,-0.1851741965651512,0.8487719610542058,-0.0792865604162216,-0.0482338778674602,0.1916578561067581,walking
1761225845125107500,0.4499544658193364,-0.1363666187763214,0.7168196515887976,-0.0748369917273521,-0.1156191304326057,0.2265227884054184,walking
1761225845135120600,0.3153727576984092,-0.0957072761297225,0.4801636895895004,-0.0634245425462722,-0.1621309667825698,0.2421885579824447,walking
1761225845145133600,0.0684945672944188,-0.0867401258200407,0.3406494204372167,-0.0591725036501884,-0.2050549089908599,0.2441982924938202,walking
1761225845155147500,-0.1564065499054268,-0.163178637856245,0.1987877113759517,-0.0426015183329582,-0.2342634052038192,0.2282105386257171,walking
1761225845165160700,-0.3551375626580789,-0.2500911976337432,0.0775613785862922,-0.0294007621705532,-0.2698166072368622,0.1918424069881439,walking
1761225845175173600,-0.5340748741276562,-0.3246457956194877,0.0509334839016199,-0.023652596399188,-0.3298109769821167,0.1494800299406051,walking
1761225845185186600,-0.6303444603152573,-0.3624111703902483,0.0225900174707174,-0.021279327571392,-0.3796297013759613,0.1121651902794838,walking
1761225845195199700,-0.6488625521719456,-0.3340899157911539,-0.0686462507247924,-0.0199125930666923,-0.4146012663841247,0.0923169180750846,walking
1761225845205213400,-0.6258312206745147,-0.2343348255753517,-0.2021200706690549,-0.0141186341643333,-0.4187082350254059,0.083339512348175,walking
1761225845215226600,-0.5967637508179993,-0.1328477970004081,-0.3359691536664962,0.0018195859156548,-0.3967810869216919,0.0954233407974243,walking
1761225845225239600,-0.5206408440696075,-0.1026923127114772,-0.4235089054316282,0.023389084264636,-0.3899646699428558,0.1124659925699234,walking
1761225845235252700,-0.5130401232749223,-0.1700058535277843,-0.4090209458738565,0.0465639121830463,-0.4258664846420288,0.118407242000103,walking
1761225845245265700,-0.5746054027628154,-0.3036889323085546,-0.2207493678152561,0.0516075380146503,-0.5126955509185791,0.1017538011074066,walking
1761225845255279600,-0.7261745591070503,-0.514527146962285,0.0100794954657554,0.0429884828627109,-0.5943318605422974,0.0684930384159088,walking
1761225845265292500,-0.8576729142598807,-0.7445446938604116,0.0223398421019315,0.0185517333447933,-0.6361652612686157,0.0213381070643663,walking
1761225845275305500,-1.0375183900829403,-0.880920664986968,0.009979542222619,-0.0194518417119979,-0.6873541474342346,-0.0381838120520114,walking
1761225845285318700,-1.2738152364462614,-0.9186842861920594,0.0755231507569551,-0.0747594907879829,-0.7125203013420105,-0.1062575727701187,walking
1761225845295331800,-1.3541395038746296,-0.91277126275599,0.0262613994598388,-0.1289697289466858,-0.695664644241333,-0.1709856986999511,walking
1761225845305344500,-1.3840708240188655,-0.8052116362690925,-0.0780477007985115,-0.1806496232748031,-0.6371942758560181,-0.2170203924179077,walking
1761225845315358700,-1.272521835634857,-0.630437253165245,-0.158141228210926,-0.2237472832202911,-0.586677074432373,-0.2350358664989471,walking
1761225845325371400,-1.081271534026414,-0.4401806387692689,-0.088511227145791,-0.2610831260681152,-0.5724772214889526,-0.232591226696968,walking
1761225845335384600,-0.8668194397244602,-0.2962695959627628,0.0104115038990974,-0.2778445482254028,-0.5970935821533203,-0.2091564685106277,walking
1761225845345397800,-0.6165021051846444,-0.2150917804449796,0.0248655611872673,-0.2679250538349151,-0.642471194267273,-0.180447906255722,walking
1761225845355410700,-0.4669683636581525,-0.1074625958532094,-0.031949381968379,-0.2367048114538192,-0.6981693506240845,-0.1541976630687713,walking
1761225845365424600,-0.4541013198330998,0.000607902765274,-0.0814700764626264,-0.1964803785085678,-0.7739218473434448,-0.1413656771183014,walking
1761225845375437600,-0.4957357545895501,0.021658289578557,-0.2379658755540847,-0.1270403116941452,-0.8169635534286499,-0.1401451528072357,walking
1761225845385450500,-0.6027634296242147,0.0541191282004117,-0.5847276413917541,-0.0420401431620121,-0.7957908511161804,-0.1603070646524429,walking
1761225845395463700,-0.7533484703019261,0.1273416007995605,-0.8813461969226598,0.04287900775671,-0.7527000904083252,-0.1878619939088821,walking
1761225845405476600,-0.8359932165671139,0.2109960355639457,-0.8670715878546238,0.1068944185972213,-0.7306574583053589,-0.2232347130775451,walking
1761225845415489800,-0.8316932543508708,0.2513683779627084,-0.6586439414739609,0.1423858255147934,-0.729831337928772,-0.2593498528003692,walking
1761225845425503700,-0.7792101298544556,0.2579775669693946,-0.3808370539188385,0.1498359143733978,-0.7345006465911865,-0.2903513610363006,walking
1761225845435516700,-0.7280876992519945,0.2908481554359197,-0.1869248396247625,0.1311205476522445,-0.7134166955947876,-0.320807546377182,walking
1761225845445529600,-0.6816253694150597,0.3634983811050653,-0.0799181708455085,0.1076531782746315,-0.6745886206626892,-0.3399720191955566,walking
1761225845455542500,-0.6233304168347269,0.4923527245551347,0.0214098677754402,0.0831441059708595,-0.6241371631622314,-0.3668699264526367,walking
1761225845465555700,-0.571037700343877,0.5151823960006237,0.0890180076241493,0.0468929037451744,-0.5629078149795532,-0.4123517870903015,walking
1761225845475569700,-0.6123180974982678,0.5150707523196936,0.2177694752216339,-0.0047750850208103,-0.5157256722450256,-0.4636461436748504,walking
1761225845485582600,-0.6244043296765536,0.5577092860847711,0.4112047196537256,-0.0746833458542823,-0.4974905848503113,-0.4977970719337463,walking
1761225845495595800,-0.5111011180363595,0.5987006371647119,0.5108966815054417,-0.1285559087991714,-0.4733521938323974,-0.5121719837188721,walking
1761225845505608400,-0.3455420147843658,0.6642325552612542,0.4389765236765146,-0.1691665351390838,-0.4370951056480407,-0.50865238904953,walking
1761225845515621600,-0.2136024186700582,0.7600958987355232,0.3590905015349387,-0.2087499052286148,-0.4142920672893524,-0.5015350580215454,walking
1761225845525635800,-0.1726361289661377,0.7898445557892322,0.2950187191188335,-0.2331811487674713,-0.3706966042518616,-0.4794363379478454,walking
1761225845535648500,-0.1345866765569895,0.7998872263759375,0.2093675575792789,-0.2528821527957916,-0.3688691556453705,-0.4442727565765381,walking
1761225845545661700,0.0287052854806184,0.8302256660163402,0.2254483392864465,-0.269518107175827,-0.4043776392936706,-0.3965742588043213,walking
1761225845555674600,0.1207233517035841,0.7792664631515741,0.1609995402514934,-0.2784317135810852,-0.4385286867618561,-0.3397006094455719,walking
1761225845565687600,0.1739636512428522,0.770557086995244,0.0115413847118616,-0.2820663750171661,-0.4665131866931915,-0.26765838265419,walking
1761225845575700500,0.1876581223353743,0.7503980960637331,-0.0991360815346241,-0.281174749135971,-0.5049180388450623,-0.189080998301506,walking
1761225845585714700,0.1786242634650319,0.7763952916294335,-0.1879167732715606,-0.2660430669784546,-0.5292431116104126,-0.1124636605381965,walking
1761225845595727600,0.1036311279315501,0.6930868938237428,-0.4012994117110967,-0.2291934192180633,-0.5288532376289368,-0.0379718504846096,walking
1761225845605737500,-0.0123281511753797,0.6535907497376203,-0.641121728786826,-0.1684628427028656,-0.4824658036231994,0.0394272357225418,walking
1761225845615750400,-0.156731361413002,0.6390501832097768,-0.8010363964110613,-0.0849490314722061,-0.4331304728984833,0.1033353731036186,walking
1761225845625763300,-0.3300313611153513,0.5407195728391408,-0.8319804007291793,0.0243575200438499,-0.389195442199707,0.135244145989418,walking
1761225845635777500,-0.5335464663393795,0.3305512202709913,-0.6581126110762358,0.13230662047863,-0.3546387851238251,0.1354236453771591,walking
1761225845645790500,-0.7264660893995314,0.0683276862949132,-0.3711158703714609,0.2304241955280304,-0.3273782134056091,0.095964528620243,walking
1761225845655803400,-0.889065100736916,-0.2239046169757843,-0.014548749834299,0.2997433543205261,-0.3216236531734466,0.0358287543058395,walking
1761225845665816300,-0.875552635147795,-0.495675731498003,0.4212818770319223,0.3328196108341217,-0.3085877001285553,-0.0322037525475025,walking
1761225845675829500,-0.8141296136748045,-0.6969903310030698,0.8274895190507173,0.3196635842323303,-0.3004176616668701,-0.0998110249638557,walking
1761225845685843500,-0.7798617256309837,-0.8305202650487422,1.2809727069854735,0.2549590766429901,-0.3033081293106079,-0.1673702746629715,walking
1761225845695856400,-0.7626056165341287,-0.9614560909479856,1.681326946800947,0.1592189520597458,-0.3023118376731872,-0.2377994358539581,walking
1761225845705869300,-0.7323647189840674,-1.0342045162945983,1.9839941348463292,0.0336870737373828,-0.2832525670528412,-0.3190584778785705,walking
1761225845715882200,-0.7263670860044658,-1.1164175200790163,2.11478616836071,-0.092630386352539,-0.2590854465961456,-0.3953061103820801,walking
1761225845725895400,-0.6814551274146884,-1.0778197861373424,2.0697809054642917,-0.2068801075220108,-0.2371996939182281,-0.4510403573513031,walking
1761225845735908600,-0.5970175063833594,-0.9242208775311708,1.8548486994951965,-0.2740756571292877,-0.2058409750461578,-0.4856920838356018,walking
1761225845745922300,-0.4522564956840127,-0.7583359033256769,1.436006032308936,-0.2977115213871002,-0.1571617573499679,-0.512383222579956,walking
1761225845755935500,-0.3278645384702831,-0.6120593004316092,0.9173585905462502,-0.2826609313488006,-0.0937835872173309,-0.5211849212646484,walking
1761225845765948400,-0.299810264244303,-0.4285071521103382,0.4637140745699405,-0.2417613565921783,-0.0156336650252342,-0.5171838402748108,walking
1761225845775961300,-0.2822617480721324,-0.2800450218707322,0.1076665939927101,-0.1729071885347366,0.0580639913678169,-0.5013703107833862,walking
1761225845785974500,-0.2104416896168142,-0.1700134523123502,-0.1281757135361433,-0.0993469879031181,0.1455604583024978,-0.4846241474151611,walking
1761225845795988200,-0.1289679598923772,-0.1277607029944658,-0.1299222649425268,-0.0466731265187263,0.1887175142765045,-0.4517636597156524,walking
1761225845806001400,0.049091143970564,-0.0833627583414316,0.0759253018170595,-0.0131540726870298,0.1709325760602951,-0.3979273736476898,walking
1761225845816014300,0.3099931470192968,-0.0654880789548158,0.3139005297213793,0.0109406113624572,0.1178888082504272,-0.3186714351177215,walking
1761225845826027500,0.5120353301465511,-0.0202852476596832,0.3765010705411434,0.0202464181929826,0.1032880023121833,-0.2244144678115844,walking
1761225845836040400,0.6275836903650314,0.0283925662696361,0.2968856820344924,0.0330247990787029,0.1443174630403518,-0.1263369023799896,walking
1761225845846054400,0.6111100368827581,0.0754547616958618,0.1344102240115404,0.0393021181225776,0.2182720005512237,-0.0323301292955875,walking
1761225845856067300,0.5310701393537223,0.0629956776171922,0.1071434469014406,0.0354826115071773,0.2783742249011993,0.042359821498394,walking
1761225845866080500,0.4619761448614299,-0.0235901344239711,0.1615864002287387,0.0379938818514347,0.30930095911026,0.101953387260437,walking
1761225845876093400,0.3504800557084381,-0.1463122587293386,0.1751566604197025,0.0486718229949474,0.3419169783592224,0.1365979313850402,walking
1761225845886106400,0.173291597200185,-0.3040776393651962,0.1586024159818887,0.0725578889250755,0.363462895154953,0.1377508789300918,walking
1761225845896119300,0.0178542941857129,-0.4428840525090694,0.1292249303281307,0.1088085696101188,0.3815870285034179,0.1229929700493812,walking
1761225845906133500,-0.0705028383769094,-0.5053852246075868,0.0377338105887174,0.1571146547794342,0.4019310772418976,0.1075700372457504,walking
1761225845916146400,-0.0490687860082834,-0.4622942708998918,-0.0879758050948381,0.2200960218906402,0.4435991644859314,0.0972252562642097,walking
1761225845926159400,0.0411716760829091,-0.4242606005817651,-0.1960252609252929,0.2642151415348053,0.5240695476531982,0.0990461185574531,walking
1761225845936172500,0.1663112367935478,-0.3980687592267989,-0.2066074452161788,0.290312260389328,0.6228248476982117,0.1102649495005607,walking
1761225845946185500,0.289232171606645,-0.3966366805970668,-0.0053425300717353,0.2728036046028137,0.7037255764007568,0.1267101913690567,walking
1761225845956199400,0.4907842696620151,-0.5137520709365606,0.3880570683002471,0.2210647910833358,0.7293931245803833,0.1544059962034225,walking
1761225845966212600,0.6722473732821643,-0.6551888325840234,0.7654863596022129,0.1527522355318069,0.7141859531402588,0.1736555695533752,walking
1761225845976225300,0.8689727453008294,-0.9199930307030676,1.0132733719468117,0.057920254766941,0.6457416415214539,0.1943182498216629,walking
1761225845986238500,0.966600760360062,-1.0418915636658668,1.2501672343552113,-0.0432782620191574,0.5030427575111389,0.2179974764585495,walking
1761225845996251400,1.02745518816486,-1.072982867500186,1.3126426874905823,-0.1559017449617386,0.3338984847068786,0.2391307204961776,walking
1761225846006265300,1.0013801050573587,-1.0754688390970228,1.0365887810826302,-0.2524521946907043,0.2045155018568039,0.2583134770393371,walking
1761225846016278500,0.7966846309423447,-0.9509610004186628,0.481630255010724,-0.3371968865394592,0.1471169143915176,0.2648435533046722,walking
1761225846026291500,0.476768201932311,-0.7472627206474542,-0.2007370918780565,-0.4046539068222046,0.1650582551956176,0.2544435262680053,walking
1761225846036304400,0.1108694451546296,-0.4759083702325821,-0.8376175298333167,-0.4302612543106079,0.2775909602642059,0.2470940053462982,walking
1761225846046317300,-0.0557032555866986,-0.1009498529583215,-1.508246508133411,-0.4227955639362335,0.4481028020381927,0.2572212517261505,walking
1761225846056330500,-0.0769508820051327,0.2285363684296608,-2.136768867588043,-0.3586661219596863,0.6539518237113953,0.2833607196807861,walking
1761225846066344400,-0.1429962843154557,0.528438183414936,-2.6562749720066785,-0.2348479926586151,0.8667570948600769,0.3211697041988373,walking
1761225846076357400,-0.1252603558124043,0.7785106763482094,-2.843101027432084,-0.0683974847197532,1.0103191137313845,0.3530434966087341,walking
1761225846086370600,0.0030614699298515,0.9563093757092952,-2.6007880625844,0.1179111823439598,1.048862338066101,0.3888152539730072,walking
1761225846096383200,0.2771463047545403,1.0757704523921012,-2.0633038184046746,0.2877369523048401,0.998046875,0.4467392563819885,walking
1761225846106396400,0.6079013770345598,1.0816969198316335,-1.3578887734055518,0.4200224280357361,0.8887727856636047,0.5337579846382141,walking
1761225846116410400,0.9022955345142633,1.0836363634616135,-0.5779337434679269,0.5034720301628113,0.7482652068138123,0.6325348615646362,walking
1761225846126423300,1.0818848436191677,1.0023545030474663,0.0751753602325916,0.5387031435966492,0.6009792685508728,0.7248852849006653,walking
1761225846136436500,1.1700893429033457,0.923483795428276,0.5980383738636971,0.5364788770675659,0.4778280556201935,0.8046591877937317,walking
1761225846146449400,1.1447788144275546,0.8186018637180328,0.8908844251185655,0.4935532212257385,0.4057714641094208,0.8715652227401733,walking
1761225846156462300,1.0300909434959291,0.7152320901364088,1.031264955711365,0.4240676164627075,0.3763866722583771,0.9146514534950256,walking
1761225846166475300,0.85840393194817,0.5794271968960761,1.162553248310089,0.3262607455253601,0.3558001816272735,0.9249627590179444,walking
1761225846176489500,0.6915630452573299,0.4059644809126854,1.2609259442567824,0.2089471817016601,0.3439919948577881,0.9035285711288452,walking
1761225846186502400,0.5292743785107508,0.1889765114575624,1.3541115929543972,0.0748630985617637,0.3169179260730743,0.8601466417312622,walking
1761225846196515300,0.3821435334075242,-0.0052519291788339,1.384099319460988,-0.052012026309967,0.2628310024738312,0.7985376119613647,walking
1761225846206528500,0.2980516936065629,-0.1233329496800899,1.2544003418803211,-0.1585068702697754,0.2347595393657684,0.7219419479370117,walking
1761225846216541200,0.2358245892090723,-0.1861409957706928,0.908970116907358,-0.2269876599311828,0.221098855137825,0.6318077445030212,walking
1761225846226555400,0.1220971608074381,-0.1708306139141321,0.4600386009275913,-0.2580557465553283,0.2456543147563934,0.5396313667297363,walking
1761225846236568600,0.0375496861934661,-0.0416764107346534,-0.0270084184348583,-0.2547664940357208,0.2940732538700104,0.4601120054721832,walking
1761225846246581200,0.0696911201352253,0.1709878503024578,-0.4087187480568885,-0.21999092400074,0.343946248292923,0.393120139837265,walking
1761225846256594400,0.1124545589216053,0.3543371695280075,-0.6633323915511369,-0.1818528622388839,0.4156696796417236,0.3377173542976379,walking
1761225846266607400,0.1635247478801757,0.4789467150151729,-0.8231570428043603,-0.1324657946825027,0.4869646728038788,0.2945280969142914,walking
1761225846276621300,0.2166686561065726,0.5672510214120149,-0.7907832979440689,-0.08433847874403,0.5437213778495789,0.2595277726650238,walking
1761225846286634500,0.3871503287188708,0.5926327154278754,-0.6862491567581892,-0.0317870080471038,0.5575448274612427,0.2513965368270874,walking
1761225846296647400,0.4951650785621255,0.6183639535337686,-0.4906488432466983,0.0222354810684919,0.5494940876960754,0.2412557601928711,walking
1761225846306660400,0.577879711725749,0.5298626632601022,-0.3122334732919931,0.073265828192234,0.5312323570251465,0.2259683310985565,walking
1761225846316673500,0.6057573872758075,0.4701788866698742,-0.1021487073540687,0.1150990277528762,0.5030944347381592,0.2106862962245941,walking
1761225846326686500,0.5968940626667812,0.3812216693222522,0.1510170754194259,0.1350160837173462,0.4491231143474579,0.1834962517023086,walking
1761225846336700400,0.568319527426362,0.2589151400804519,0.461585245847702,0.1355620324611663,0.3990927040576935,0.1543274521827697,walking
1761225846346713300,0.5559186398083343,0.1472837341099977,0.6985849067181349,0.1138059496879577,0.3449970185756683,0.1208179965615272,walking
1761225846356726500,0.51341984330751,0.0597001432031393,0.9070505470216274,0.0527774840593338,0.2940978705883026,0.0854229852557182,walking
1761225846366739500,0.407503819309175,-0.0159188691437244,1.11784726062119,-0.027024932205677,0.2275368124246597,0.0533287599682807,walking
1761225846376752400,0.3916925021931529,0.0039215573579072,1.16922790376842,-0.1111501976847648,0.1578091233968734,0.0352123416960239,walking
1761225846386766300,0.3806058389788493,0.0709101040035486,1.021499348500371,-0.1674123704433441,0.112990066409111,0.0316749811172485,walking
1761225846396779300,0.2950814090915024,0.2061462574452161,0.5942407351464033,-0.1943278759717941,0.1002202108502388,0.0350457429885864,walking
1761225846406792400,0.1801585786265321,0.3972054203957319,0.1830710868060588,-0.2012237459421157,0.0854699835181236,0.0419446043670177,walking
1761225846416805600,-0.0258783184263855,0.5163420874297618,-0.1057715740263462,-0.1878820955753326,0.064946599304676,0.0397863797843456,walking
1761225846426818300,-0.1852460196923464,0.5075701674312353,-0.3298375190436839,-0.1508091390132904,0.0493644550442695,0.0286567751318216,walking
1761225846436831500,-0.265474388998188,0.4249912529438733,-0.5474193627387285,-0.0877612009644508,0.0426215976476669,0.0201703459024429,walking
1761225846446845200,-0.3180886290609836,0.4228898967504501,-0.7599737336605786,-0.0199461597949266,0.0504543036222457,0.0135056348517537,walking
1761225846456858400,-0.3952271791253238,0.4201613485693931,-0.8083838365644216,0.0483607277274131,0.0518868193030357,0.0069108493626117,walking
1761225846466871600,-0.4517605288606137,0.3388035003095865,-0.6908855843871832,0.1075820326805114,0.0302244164049625,-0.0058758482336997,walking
1761225846476884500,-0.4601665381561964,0.166416304603219,-0.4692600182592868,0.15887051820755,-0.0071154981851577,-0.021822590380907,walking
1761225846486897400,-0.4843875543622299,0.0036234511941671,-0.2862619966894388,0.2101027965545654,-0.0636341348290443,-0.0531130917370319,walking
1761225846496911400,-0.5438113283094018,-0.1255471185982227,-0.1282628072977066,0.2586362659931183,-0.1411941796541214,-0.0975303575396537,walking
1761225846506924300,-0.6318263694360852,-0.200370596653223,-0.0899649330854415,0.3132644295692444,-0.2063020765781402,-0.1367962956428527,walking
1761225846516937500,-0.6466229565516114,-0.2076332811325788,-0.2158195101976394,0.3755805492401123,-0.2667702138423919,-0.183070570230484,walking
1761225846526950400,-0.6056531597163528,-0.1604839919447898,-0.2517372112751007,0.4197427034378052,-0.3086240589618683,-0.2171657979488372,walking
1761225846536963600,-0.5695815467188134,-0.1352566117078066,-0.1504202785700559,0.4256328046321869,-0.3571979999542236,-0.2288999557495117,walking
1761225846546976300,-0.4451180951714515,-0.1135018760174512,0.1443050105601549,0.4016854166984558,-0.4241224527359009,-0.2207531183958053,walking
1761225846556990500,-0.274202798648551,-0.1557347515910863,0.3197667914062738,0.3653758764266968,-0.4680952429771423,-0.2005045711994171,walking
1761225846567003400,-0.2266455862469971,-0.2194955683618784,0.3548971414983272,0.3184786736965179,-0.4769608974456787,-0.1900348961353302,walking
1761225846577016300,-0.3324426235081628,-0.2963561052024364,0.3057026102185249,0.2795760035514831,-0.4687237441539764,-0.1949987560510635,walking
1761225846587029500,-0.474113814966008,-0.4558744669854641,0.2043365776747465,0.2394066452980041,-0.4598494172096252,-0.2311515808105468,walking
1761225846597042400,-0.6471671464309096,-0.5917185231924057,0.2911830864787101,0.1840967833995819,-0.5193638801574707,-0.2948245704174042,walking
1761225846607056000,-0.7586945075049996,-0.7274076810985803,0.5669131677597761,0.1147460862994194,-0.6386193633079529,-0.3749611675739288,walking
1761225846617069000,-0.7916644646927714,-0.8371762158066034,0.7466039644777774,0.0257552303373813,-0.7797370553016663,-0.4501397907733917,walking
1761225846627082000,-0.6619887949224561,-0.8358060964971781,0.7660270423501729,-0.0598166994750499,-0.8943701386451721,-0.4873405992984772,walking
1761225846637095000,-0.5325937687244265,-0.6618178953349589,0.5900421144127845,-0.1309601217508316,-0.956170380115509,-0.4910812675952911,walking
1761225846647108000,-0.4919274483477696,-0.4799608604937792,0.2480576459795236,-0.1904433667659759,-0.9512242674827576,-0.4851540923118591,walking
1761225846657121000,-0.5841550291355699,-0.3844681038975715,-0.2336018351256847,-0.2065136879682541,-0.8883995413780212,-0.4858654141426086,walking
1761225846667135000,-0.6439583404522389,-0.3448725910902023,-0.6343523807823658,-0.208262100815773,-0.7697603106498718,-0.5035666823387146,walking
1761225846677148200,-0.8365190670721232,-0.2812117275625467,-0.8021253606915474,-0.2029807865619659,-0.6420451998710632,-0.5479735732078552,walking
1761225846687161000,-1.014807741907239,-0.2177051778137683,-0.7114864738672971,-0.2011927217245102,-0.5764374732971191,-0.6000999808311462,walking
1761225846697174000,-0.8847189612913876,-0.2278039625018835,-0.4167600156933069,-0.203949898481369,-0.5741413235664368,-0.6416943073272705,walking
1761225846707187000,-0.6613700054369867,-0.2753863824099302,-0.1248030222326517,-0.2053156644105911,-0.6133448481559753,-0.672385573387146,walking
1761225846717201000,-0.4571442311929538,-0.2144452992349863,0.1066512794703245,-0.1972321718931198,-0.6841668486595154,-0.6881104707717896,walking
1761225846727214000,-0.2899980414126068,-0.0281464825540781,0.2594628370910883,-0.1793053299188614,-0.76606684923172,-0.6792699694633484,walking
1761225846737227000,-0.1753891540013253,0.1980687494516372,0.342439226463437,-0.1535432338714599,-0.823511004447937,-0.6604840159416199,walking
1761225846747240200,-0.1159803218949586,0.2764057885855436,0.2919675148546695,-0.124720312654972,-0.8613055348396301,-0.6408543586730957,walking
1761225846757252900,-0.1209983327200636,0.3030225773543119,0.2626326992988586,-0.0987022966146469,-0.8771294951438904,-0.6380378007888794,walking
1761225846767266000,-0.1834280104849487,0.3425111226558685,0.2325105327576398,-0.082634836435318,-0.858966052532196,-0.645713210105896,walking
1761225846777280000,-0.2619176828972995,0.34174364541471,0.2517652683258056,-0.0769061148166656,-0.8377726078033447,-0.6508325934410095,walking
1761225846787293000,-0.2974987358989194,0.3842921628087759,0.1191080254614353,-0.0537536367774009,-0.7561151385307312,-0.6574274301528931,walking
1761225846797306000,-0.4049418598666787,0.3730149819910526,-0.1694640017360448,-0.0346518456935882,-0.6314927339553833,-0.6891443729400635,walking
1761225846807319000,-0.5352477172993123,0.366855874839425,-0.3034200522392988,-0.027917094528675,-0.5276700258255005,-0.7365033626556396,walking
1761225846817332000,-0.610319836353138,0.3453986607909202,-0.1988835729658603,-0.0434838011860847,-0.4600507616996765,-0.7878651022911072,walking
1761225846827345000,-0.513228887312673,0.2971674215853214,-0.0271744226515293,-0.0736003443598747,-0.4264076054096222,-0.8238444924354553,walking
1761225846837358800,-0.2823624319676309,0.3444827149897813,0.1248684886842966,-0.1082121208310127,-0.428702712059021,-0.8206902742385864,walking
1761225846847372000,0.0480403928086161,0.4761965395241975,0.2912760254591703,-0.161971166729927,-0.4642771482467651,-0.7814199924468994,walking
1761225846857385000,0.3344141793094575,0.5858534305512905,0.4112479742735624,-0.2237397283315658,-0.4894948899745941,-0.7249383926391602,walking
1761225846867398100,0.5572908414769917,0.6515034220695495,0.4467816444694996,-0.2925599813461303,-0.5097853541374207,-0.6451722383499146,walking
1761225846877410800,0.7012517878398299,0.7268488781720399,0.396455478811264,-0.3662589490413666,-0.4992613792419433,-0.5505331158638,walking
1761225846887425000,0.7477206935480236,0.7753256165713072,0.2796405327230691,-0.4329625368118286,-0.470137745141983,-0.4623253941535949,walking
1761225846897438000,0.7324366151764988,0.780370625001192,0.1454647019892931,-0.4805790483951568,-0.4268970489501953,-0.3738559782505035,walking
1761225846907451000,0.6691311409577727,0.7463894449442625,-0.0811655405580997,-0.4841331243515014,-0.3640515208244324,-0.2885871827602386,walking
1761225846917464000,0.588380464810878,0.7316407886236905,-0.4344043934553861,-0.438286542892456,-0.2737682461738586,-0.219782292842865,walking
1761225846927477000,0.5047997163372114,0.7732628388226032,-0.7202461189061403,-0.3672974705696106,-0.1798032820224762,-0.1570457965135574,walking
1761225846937490000,0.4371513906085863,0.7771808890491724,-0.7209434535205363,-0.2698148488998413,-0.1075242906808853,-0.0984575822949409,walking
1761225846947504000,0.5511158426364884,0.709595545554161,-0.5497369920313357,-0.1571588963270187,-0.0606710016727447,-0.0297621004283428,walking
1761225846957516800,0.6725520553171634,0.5528489865720272,-0.2581879948496818,-0.0684122443199157,-0.0470878183841705,0.0312772840261459,walking
1761225846967530000,0.735248019335419,0.2976397152721882,0.1479039118349552,0.0085406694561243,-0.056336686015129,0.080060563981533,walking
1761225846977543000,0.7762899315588175,0.0392617508083581,0.548257567128539,0.0708485171198844,-0.0799397528171539,0.1087156385183334,walking
1761225846987556000,0.8602690682329237,-0.1881780545562505,0.7748498157531023,0.1269281059503555,-0.1011165454983711,0.1373724192380905,walking
1761225846997569000,0.9541790126170964,-0.2643377496510743,0.9453010749608278,0.1639620214700698,-0.1048186048865318,0.1655191034078598,walking
1761225847007583000,0.9281938728153704,-0.3035264352232217,1.1202993299484252,0.1704886704683303,-0.0900769680738449,0.1863015592098236,walking
1761225847017596000,0.8301131455525755,-0.4795651391744613,1.3050748825848102,0.1432519853115081,-0.0733461901545524,0.1859646737575531,walking
1761225847027608800,0.7609292808197439,-0.6945557973325253,1.4329203412532805,0.0955548733472824,-0.0372755862772464,0.1671778857707977,walking
1761225847037622000,0.638537338316813,-0.863753257086873,1.48478730661273,0.0254343803972005,-0.0041037858463823,0.124796338379383,walking
1761225847047635200,0.5439561070749536,-0.9376695571690796,1.612139428806305,-0.0773175433278083,0.0033523887395858,0.0859225988388061,walking
1761225847057649000,0.5283416642379015,-0.9181967949360608,1.6924106508731842,-0.1906134784221649,0.0012745903804898,0.0738539546728134,walking
1761225847067662000,0.6032994727296754,-0.8663853591561317,1.5724509770184754,-0.3008754253387451,0.0179193038493394,0.0808223187923431,walking
1761225847077675000,0.6652110449045896,-0.6899263839662074,1.2993898226857186,-0.3945286571979522,0.0500364936888217,0.1003861650824546,walking
1761225847087688000,0.6033535410044715,-0.4815776480406522,0.9154203159600496,-0.4565045833587646,0.1013523638248443,0.1378969997167587,walking
1761225847097701000,0.526055489529483,-0.2550976276189088,0.4990525144547224,-0.4775914847850799,0.1678283363580703,0.1710863709449768,walking
1761225847107714000,0.4605524322012439,-0.1078629933476448,0.0441436776310205,-0.4600825309753418,0.2205846011638641,0.2114539444446563,walking
1761225847117728000,0.4446532906712964,-0.0096966336280107,-0.2280477081298828,-0.4062222242355346,0.2497100085020065,0.2647855877876282,walking
1761225847127741200,0.4797393266975879,0.1209989537745714,-0.4615472519248724,-0.3250158429145813,0.2591922581195831,0.3334265053272247,walking
1761225847137753900,0.4935460259929299,0.1716524516910314,-0.7165881809204816,-0.2199360430240631,0.2828938663005829,0.4010598659515381,walking
1761225847147767000,0.4372887167200446,0.1762228283464908,-0.9026327305793762,-0.1054955571889877,0.280867725610733,0.4665379226207733,walking
1761225847157780000,0.3267332694180309,0.127855395540595,-0.9432873970508576,0.0059081967920064,0.2747254073619842,0.5240603089332581,walking
1761225847167794000,0.184160416412726,0.0593622895509004,-0.8959066371947526,0.10807416588068,0.2787021696567535,0.5598925352096558,walking
1761225847177807000,0.0045697921335697,-0.1174123274594545,-0.8108107714504003,0.1913658678531646,0.286514550447464,0.5750661492347717,walking
1761225847187820000,-0.2137638197768479,-0.2816407666295766,-0.648043052482605,0.2453023046255111,0.3120895624160766,0.5679111480712891,walking
1761225847197833000,-0.4267445263519883,-0.391934786516428,-0.4008212728053331,0.2650283575057983,0.3639783263206482,0.5387290716171265,walking
1761225847207846000,-0.534284863616526,-0.4886719902157783,-0.1083271037280559,0.2467415779829025,0.4153958559036255,0.5111018419265747,walking
1761225847217859000,-0.5687276698358357,-0.5745242272853851,0.2798351785123348,0.1952901035547256,0.4518457353115082,0.4899196028709411,walking
1761225847227873000,-0.5050467864334584,-0.6255664322584867,0.6005939035654068,0.1292135417461395,0.4815751314163208,0.4787635803222656,walking
1761225847237886000,-0.4354384857434779,-0.6427735876470804,0.7578332145005464,0.064268097281456,0.5029158592224121,0.4686987102031708,walking
1761225847247899100,-0.3840556506391614,-0.5737164180338382,0.7846189300954342,0.0113209933042526,0.5153844952583313,0.4660664498806,walking
1761225847257911800,-0.3475155068144202,-0.4544768751472234,0.7593599856764077,-0.0141598656773567,0.5261479616165161,0.4728529751300812,walking
1761225847267925000,-0.30344336004965,-0.2975841856926679,0.5646855548381805,-0.0033314889296889,0.5589843392372131,0.4900121390819549,walking
1761225847277938000,-0.3181676491139456,-0.2197901673942804,0.2455494625508785,0.0342142879962921,0.6341499090194702,0.5036605596542358,walking
1761225847287952000,-0.4589683778801933,-0.2128127295970916,-0.1124912376701831,0.0857790261507034,0.7463480830192566,0.4996730387210846,walking
1761225847297965000,-0.6551867867574095,-0.235429050552845,-0.3804793265223503,0.1607944071292877,0.8887673020362854,0.4829859435558319,walking
1761225847307978000,-0.6682626875601708,-0.2838555200695991,-0.4120651358753442,0.2283442020416259,1.007556438446045,0.4585461914539337,walking
1761225847317991000,-0.5659526886971668,-0.4161696485847234,-0.1304074181109666,0.2683299779891968,1.0499792098999023,0.4389463663101196,walking
1761225847328003800,-0.3673588924581185,-0.5495312403261661,0.3597586100548505,0.2872028648853302,1.0191428661346436,0.4338559508323669,walking
1761225847338017000,-0.0619473010754212,-0.6845821003288031,0.8205570894390344,0.2739355266094208,0.9621334671974182,0.4354749023914337,walking
1761225847348031000,0.1354250636098906,-0.8063572991728782,1.0578156935065983,0.2430014908313751,0.9459288716316224,0.4358035027980804,walking
1761225847358044000,0.2998381020992994,-0.8969289659798145,1.0959423028051851,0.1922765374183654,0.9834535717964172,0.4415143728256225,walking
1761225847368057000,0.4765890825057402,-0.9069874186575412,1.0931780987888573,0.1268748790025711,1.0165871381759644,0.4637045860290527,walking
1761225847378069800,0.6440915383778512,-1.005906058049202,1.1423305444926022,0.0531114488840103,0.9923908114433287,0.4833943843841553,walking
1761225847388083000,0.7520921866305172,-1.1428852557659148,1.3052958318591117,-0.052172627300024,0.8238514065742493,0.4957736134529114,walking
1761225847398097200,0.8635045430228113,-1.1241297018915417,1.6368775642216205,-0.170358121395111,0.4766620695590973,0.5210962891578674,walking
1761225847408109800,0.867800194390118,-1.0325883132696152,1.6367174052238462,-0.2629859447479248,0.1208200007677078,0.5631582140922546,walking
1761225847418123000,0.6650701751291751,-0.8233692242503166,0.7845289137244225,-0.3184491991996765,-0.0952928513288497,0.5919379591941833,walking
1761225847428136000,0.1393297063656151,-0.5667050779670476,-0.5848562362074852,-0.3284639418125152,-0.151548370718956,0.588985025882721,walking
1761225847438148900,-0.5450658584151417,-0.246622644740343,-1.918037269335985,-0.3205567598342895,-0.118201345205307,0.5678994655609131,walking
1761225847448162000,-0.9007529812473803,0.0870405700713396,-2.8070769433707,-0.2799228429794311,0.0038004426751285,0.5572167038917542,walking
1761225847458176000,-1.0120233718857168,0.4044920702725648,-3.4726287645369767,-0.1862573474645614,0.2615057528018951,0.5766034722328186,walking
1761225847468189000,-1.1971182926695794,0.8517886785268783,-4.030056895592809,-0.0173964779824018,0.5841567516326904,0.5977094173431396,walking
1761225847478202000,-1.3963070591270923,1.2338836235523225,-4.133471677359938,0.1899564415216446,0.902497947216034,0.6296276450157166,walking
1761225847488215000,-1.3706126459002494,1.5427800613760947,-3.794695065057277,0.414980947971344,1.1743144989013672,0.6512107253074646,walking
1761225847498228000,-1.2990497770763934,1.624953317672014,-3.0413275977939365,0.6152669191360474,1.330055832862854,0.623906135559082,walking
1761225847508241000,-1.008767146568745,1.2622189066767693,-1.940454852849245,0.7695437073707581,1.3423584699630735,0.5921299457550049,walking
1761225847518255000,-0.5889979025894776,0.9983984588980674,-0.6525578995585442,0.852790355682373,1.2446972131729126,0.5769496560096741,walking
1761225847528268000,-0.185797972752992,0.8823615114450454,0.6253221021085977,0.8533058166503906,1.064405918121338,0.5765201449394226,walking
1761225847538281000,0.0952037561875302,0.72863926872015,1.677832090422511,0.783112645149231,0.8307434320449829,0.5833066701889038,walking
1761225847548294100,0.3527363467352464,0.561060934600234,2.4781518629968167,0.6827062964439392,0.5689117908477783,0.59272700548172,walking
1761225847558306800,0.5832640716452151,0.2802636330574751,2.860865232181549,0.5650544762611389,0.3521400392055511,0.5882236361503601,walking
1761225847568321000,0.6015601182490586,0.1202595335841178,2.911267385685444,0.4240142405033111,0.1659169346094131,0.5631148219108582,walking
1761225847578334200,0.4637304777154699,0.005098784443736,2.849105820804834,0.2598268985748291,0.0383438058197498,0.522548496723175,walking
1761225847588347000,0.2375968230459839,-0.0891577083557844,2.605034029591083,0.0836928337812423,-0.028803439810872,0.4694273471832275,walking
1761225847598360000,0.0268071876411791,-0.1261275488346815,2.291941893643141,-0.0932313427329063,-0.0746921002864837,0.4103853404521942,walking
1761225847608373500,-0.1063645714834332,-0.1602794092833995,1.8956956736683843,-0.2522110044956207,-0.097072847187519,0.3489930033683777,walking
1761225847618386200,-0.2315768686367198,-0.1188771393150091,1.4230828378498552,-0.3802999854087829,-0.1091193929314613,0.2974347174167633,walking
1761225847628400400,-0.3726523592237383,-0.023342297142744,0.8164479005545378,-0.4531618058681488,-0.0818960964679718,0.2336093932390213,walking
1761225847638413300,-0.609755224740319,0.0758574972778558,0.0318926833450794,-0.4702318608760834,0.0087861353531479,0.1488665491342544,walking
1761225847648426200,-0.873468010893464,0.267074481138587,-0.5967705458849668,-0.4428999125957489,0.1031750068068504,0.0598168224096298,walking
1761225847658439400,-1.0329798698704689,0.4480184927880764,-1.047465564405918,-0.3690304756164551,0.2019266188144683,-0.008361168205738,walking
1761225847668452400,-0.992274423059821,0.6491840392112731,-1.3675088346660136,-0.2683492302894592,0.3072591722011566,-0.0594317913055419,walking
1761225847678465300,-0.8600514068942516,0.7296195119291543,-1.468290929841995,-0.1554141640663147,0.3865899443626404,-0.0973823741078376,walking
1761225847688479500,-0.7344472974117845,0.6507897208422422,-1.3238906422138212,-0.0437270924448967,0.4409993290901184,-0.1246292516589164,walking
1761225847698492400,-0.5590367352962493,0.5601631089776754,-1.010980877095461,0.0565390549600124,0.486266940832138,-0.15090212225914,walking
1761225847708505300,-0.4219256182955577,0.4966273331344127,-0.5222364061653614,0.1263707280158996,0.4914309978485107,-0.1838473975658416,walking
1761225847718518300,-0.2981061637401581,0.3931698812693357,0.1289379300802946,0.1447127163410186,0.450311541557312,-0.2151888012886047,walking
1761225847728531500,-0.0926601087198592,0.2793763288289308,0.7795119623452424,0.1244705319404602,0.3700103759765625,-0.2401649057865142,walking
1761225847738544400,0.1886172131584957,0.1525970380872487,1.3037094394505022,0.06180315092206,0.2616029679775238,-0.2409582585096359,walking
1761225847748558300,0.4359611213780939,0.0688531714737415,1.6754782207727432,-0.0255208890885114,0.1381134539842605,-0.2244448661804199,walking
1761225847758571300,0.6335247708518058,0.0171089557111263,1.8467203380972144,-0.1154941841959953,0.0211018677800893,-0.2045036554336547,walking
1761225847768584200,0.6840808728083968,0.0088338793188333,1.8179121767640112,-0.1971041709184646,-0.0808999985456466,-0.182282879948616,walking
1761225847778597400,0.7015861343607306,0.0010644143611192,1.6464339125961065,-0.26557058095932,-0.169934794306755,-0.1577690094709396,walking
1761225847788610600,0.6859821763850749,-0.0043663785159587,1.444197522071004,-0.3250466585159302,-0.240583062171936,-0.1326846629381179,walking
1761225847798623200,0.6089027360968291,0.0749807144433259,1.1406593964099885,-0.3623181283473968,-0.2920020520687103,-0.1081399098038673,walking
1761225847808637400,0.475962438507378,0.0633387919664383,0.612387801733613,-0.3497067093849182,-0.298888623714447,-0.0786055997014045,walking
1761225847818650400,0.3421080582803115,0.1247749651819467,-0.0066471829295158,-0.2858963012695312,-0.2823181748390198,-0.0673484206199646,walking
1761225847828663300,0.1401950362243689,0.1586193671166896,-0.4770540331363678,-0.202684611082077,-0.2621582746505737,-0.0795698761940002,walking
1761225847838676500,-0.0558457784630823,0.1484399184077978,-0.6665975308269262,-0.1062409058213234,-0.2652129232883453,-0.098779521882534,walking
1761225847848689400,-0.1210486655346583,0.1100900217473506,-0.6462088227927685,-0.0132573377341032,-0.2996939420700073,-0.1104891896247863,walking
1761225847858702300,-0.0774917930819559,0.0387900416433811,-0.56284021923244,0.0748584046959877,-0.3415886461734772,-0.1296447664499282,walking
1761225847868716500,0.0094116084248409,-0.0296200622379779,-0.444829925879836,0.1324430555105209,-0.378088891506195,-0.1479343175888061,walking
1761225847878729200,0.0632030367575585,-0.0565676903963088,-0.262456758210063,0.1591207385063171,-0.4103261828422546,-0.1591507643461227,walking
1761225847888742400,0.1267334879717324,-0.0761702164888381,-0.0751426270067691,0.1553221642971038,-0.4379308521747589,-0.1619789749383926,walking
1761225847898755300,0.296568414512556,-0.1402361536860465,0.0090168346703052,0.1396534591913223,-0.4707021415233612,-0.1568771600723266,walking
1761225847908768500,0.3751201375767588,-0.1868710636109113,-0.0339805955350399,0.1177276745438575,-0.4823662638664245,-0.1437827050685882,walking
1761225847918781200,0.3608120280979201,-0.2150958720982074,-0.1552361544191837,0.113068476319313,-0.4997617900371551,-0.1328259259462356,walking
1761225847928795400,0.3774669929638505,-0.1912479635208845,-0.2964192335665225,0.1421485394239425,-0.5360394716262817,-0.1204654723405838,walking
1761225847938808300,0.4335907389849424,-0.1296019469469785,-0.4319043933331966,0.1918833404779434,-0.5906656980514526,-0.1116453558206558,walking
1761225847948821200,0.4609134840659797,-0.167218268635869,-0.4695604625105857,0.2468863427639007,-0.6720083355903625,-0.105195052921772,walking
1761225847958834400,0.3942931131456047,-0.2182692414373159,-0.4322445850729942,0.2933395802974701,-0.7530195713043213,-0.0976540446281433,walking
1761225847968847400,0.382016253766045,-0.322112477749586,-0.4768985503137111,0.3444473147392273,-0.7782906889915466,-0.0952149778604507,walking
1761225847978860300,0.3249829916846007,-0.5068319162845611,-0.5824012442708015,0.3769538700580597,-0.7362420558929443,-0.1151892244815826,walking
1761225847988874500,0.2497946989051997,-0.775740042591095,-0.5218804323345423,0.3576070070266723,-0.714664101600647,-0.1519608944654464,walking
1761225847998887400,0.2216631581919267,-1.0729022034794091,-0.1708358746111392,0.2757161259651184,-0.7765548825263977,-0.1973139941692352,walking
1761225848008900400,0.2797413992816582,-1.3047902204245327,0.2444914779305458,0.133362129330635,-0.8791053891181946,-0.2367294877767563,walking
1761225848018913300,0.3201217788564041,-1.557941974672675,0.4552157108157872,-0.0480190999805927,-0.9711397290229796,-0.29220712184906,walking
1761225848028926500,0.217460372739844,-1.6975848386406898,0.4157429476052522,-0.2490275204181671,-1.036471247673035,-0.3414062261581421,walking
1761225848038939400,-0.0277246038801968,-1.5550380699247122,0.1558224298745393,-0.4304599165916443,-1.053934931755066,-0.3818622827529907,walking
1761225848048953300,-0.2379840687979012,-1.2003612931787968,-0.3952104471862316,-0.5619880557060242,-0.9750196933746338,-0.4068748354911804,walking
1761225848058966300,-0.4317762369088828,-0.7256465166449546,-1.1393979981720448,-0.6027591824531555,-0.8425068855285645,-0.418826013803482,walking
1761225848068979200,-0.5947233310315758,-0.2030290022075176,-1.8359172045320271,-0.5554969906806946,-0.6492758393287659,-0.4168198108673095,walking
1761225848078992400,-0.6835058493994176,0.2335597495496273,-2.289940490692854,-0.4334992170333862,-0.4971894323825836,-0.4009087383747101,walking
1761225848089005600,-0.5481697427146136,0.5838485204696655,-2.3742472518861293,-0.2558795511722564,-0.4031819701194763,-0.3601195514202118,walking
1761225848099019300,-0.3112009153738618,0.801460174781084,-2.1875129663974047,-0.0493269227445125,-0.3412589430809021,-0.2969453632831573,walking
1761225848109032400,-0.0442491838321089,0.8757745342701673,-1.7465572516024113,0.1486182063817978,-0.3339285850524902,-0.2335197776556015,walking
1761225848119045400,0.1964225896798074,0.844911193972826,-1.021926634001732,0.3045263290405273,-0.4418793022632599,-0.1924679577350616,walking
1761225848129058300,0.3850079098626971,0.6359001947462558,-0.353239437419176,0.4376097321510315,-0.5926851034164429,-0.1955543160438537,walking
1761225848139071500,0.4419358118735254,0.3265875773370266,-0.2493827571034431,0.5687052011489868,-0.5744948983192444,-0.2168966233730316,walking
1761225848149084400,0.202503736224398,0.3189858701616525,-0.5447159489989281,0.6516531705856323,-0.3776207864284515,-0.2442888915538787,walking
1761225848159098400,-0.1383653183128684,0.4408937554746866,-0.4681026649177074,0.6573014259338379,-0.1604263931512832,-0.2848451137542724,walking
1761225848169111300,-0.1394102973211556,0.3425765891075134,0.0844786106288433,0.6018320322036743,-0.0017930059693753,-0.3241008222103119,walking
1761225848179124500,0.2011305481750518,0.1297936701267957,0.7223118192642927,0.5029930472373962,0.1187557801604271,-0.3568656742572784,walking
1761225848189137400,0.598677110158652,-0.0715904874831438,1.2129822898209095,0.3660942912101745,0.1895422786474228,-0.382610559463501,walking
1761225848199150300,0.8287386423289775,-0.0806628517329692,1.6615379582256078,0.1946069598197937,0.1841983795166015,-0.4010502696037292,walking
1761225848209163500,0.9976109617821872,-0.0219061268597841,1.9837614951342344,0.0152706736698746,0.0966242998838424,-0.409537523984909,walking
1761225848219177200,1.2425548596553504,-0.0136427409052848,1.9839415278762575,-0.1460542976856231,0.0106651820242404,-0.3952270150184631,walking
1761225848229190400,1.4752476171121,0.1063151793837547,1.52505268150568,-0.2918647825717926,-0.0222861096262931,-0.3423219919204712,walking
1761225848239203300,1.5627245327740906,0.4082406091511249,0.9731652334421872,-0.4028117954730987,-0.0144359106197953,-0.2575713992118835,walking
1761225848249216300,1.5224512668356298,0.7946499102443456,0.4243716597408056,-0.4746398031711578,0.0083580398932099,-0.1576624661684036,walking
1761225848259229400,1.429708101208508,1.0813771863579749,-0.1016015948653221,-0.5114588141441345,0.0313807986676692,-0.0568250678479671,walking
1761225848269242400,1.4093556335315107,1.227363866394758,-0.6070645608842372,-0.4952886700630188,0.0458477288484573,0.0515598580241203,walking
1761225848279256300,1.3469910934247076,1.3096060962736606,-1.147373799356818,-0.4123139083385467,0.1072820648550987,0.1606831550598144,walking
1761225848289269500,1.2024275780588387,1.4039432530939575,-1.8157015149772169,-0.2726713418960571,0.2423074394464492,0.2641670703887939,walking
1761225848299282400,0.9923751800205558,1.492094414755702,-2.3105904800117014,-0.1023017466068267,0.3807761073112488,0.3508995771408081,walking
1761225848309295400,0.7826960722740739,1.5253952113330362,-2.387257540106773,0.0780139490962028,0.5035337805747986,0.4427938759326935,walking
1761225848319308300,0.6521187044236809,1.5128811821967365,-2.1339999873965976,0.2506283223628998,0.5806950926780701,0.525719940662384,walking
1761225848329321500,0.6501506922863424,1.3134312075197696,-1.653879552426934,0.3863460123538971,0.6054260730743408,0.5923738479614258,walking
1761225848339335400,0.6488220740310847,1.0121253709554672,-1.0396879161417485,0.5037267208099365,0.5685402154922485,0.6507534980773926,walking
1761225848349348400,0.6303813582595438,0.7814858927667141,-0.3936865986198186,0.5869083404541016,0.5160698294639587,0.6828094124794006,walking
1761225848359361500,0.5787770624242723,0.5228028078764677,0.1389841077983379,0.6221832633018494,0.4797677099704742,0.6978658437728882,walking
1761225848369374200,0.4398439541608095,0.2160205857276916,0.5179015918314457,0.6202489137649536,0.4618014693260193,0.6957411766052246,walking
1761225848379387400,0.3638605654809623,-0.0003577273964881,0.741785750541091,0.5901557207107544,0.4627522230148315,0.6730286478996277,walking
1761225848389400300,0.2219612278230488,-0.1813461627095937,0.9330442354559898,0.5436072945594788,0.4953399300575256,0.6403068900108337,walking
1761225848399414300,0.0713041448224336,-0.255061971783638,1.0804805297791955,0.4699416160583496,0.5428645610809326,0.6024271249771118,walking
1761225848409427500,-0.0515672517605125,-0.3066764236867427,1.3187778292447327,0.3682566285133362,0.547072172164917,0.5644528865814209,walking
1761225848419440400,-0.1507482684154063,-0.3803425484001636,1.5997037256032227,0.2567111849784851,0.522568941116333,0.5354318618774414,walking
1761225848429453300,-0.1489906841583549,-0.4734457795113325,1.7049375394910573,0.157514601945877,0.4825157225131988,0.5137768387794495,walking
1761225848439466500,-0.197189774660021,-0.4496072232842445,1.6384493435829877,0.0753952264785766,0.4746127724647522,0.4930167198181152,walking
1761225848449479400,-0.2556201901882887,-0.4009890305876731,1.3306956460535526,0.0144244357943534,0.5291077494621277,0.481546014547348,walking
1761225848459493400,-0.4134426347736269,-0.2920066778212785,0.8530570910274982,-0.0207007937133312,0.6309086680412292,0.4793742001056671,walking
1761225848469506300,-0.5486222357224673,-0.1044201594173908,0.5087725289583206,-0.0291846543550491,0.7228601574897766,0.4901741147041321,walking
1761225848479519500,-0.573971415708214,0.0681511606842279,0.3802928640395402,-0.0293250028043985,0.7522276639938354,0.4973428249359131,walking
1761225848489532400,-0.5742989671621471,0.0940320363938808,0.4253922349601984,-0.012027733027935,0.7345181107521057,0.5081745982170105,walking
1761225848499545300,-0.5774370825247839,0.1438467453986406,0.5205038832843303,-0.0017561874119564,0.6896214485168457,0.5289433002471924,walking
1761225848509558500,-0.6296596929214895,0.1832394291102886,0.5891752684503794,0.023083359003067,0.648577868938446,0.5479544997215271,walking
1761225848519572200,-0.7034763320215046,0.1937076316326856,0.4978004685670137,0.0476712621748447,0.6470513343811035,0.555574357509613,walking
1761225848529585400,-0.8567441089771688,0.2076169145196676,0.3989233302295207,0.0672942325472831,0.6782495379447937,0.553860604763031,walking
1761225848539598600,-0.9834817525342108,0.199029703438282,0.4339478818595409,0.0685078352689743,0.710711658000946,0.5463265180587769,walking
1761225848549611300,-1.025322779246047,0.1543330680996179,0.5656079303801059,0.0547407791018486,0.7495365738868713,0.5316166281700134,walking
1761225848559624400,-0.9730426299758256,0.0123889414519071,0.7293979781329631,0.0284636337310075,0.7653509378433228,0.5142853260040283,walking
1761225848569637400,-0.9172456316910684,-0.0985416227728128,0.928088658875227,-0.0130665376782417,0.748844563961029,0.4986921548843384,walking
1761225848579650300,-0.8464237174276262,-0.1257867725729942,1.10178985978961,-0.065732941031456,0.7123051881790161,0.4828620553016662,walking
1761225848589664500,-0.7666007505849003,-0.1051934818774461,1.1582032364070416,-0.1120002940297126,0.6797968149185181,0.4763393700122833,walking
1761225848599677400,-0.7213752690665424,-0.0926812063068151,1.0734855563253165,-0.1633340418338775,0.6690576076507568,0.472027987241745,walking
1761225848609690000,-0.6448058241270482,-0.0474462263077497,0.9001286388039589,-0.1921934783458709,0.6711355447769165,0.478371798992157,walking
1761225848619703300,-0.5796996936945245,-0.0161222827613353,0.6768956374794244,-0.2146548330783844,0.683444619178772,0.4917720258235931,walking
1761225848629716200,-0.5490455026358366,0.0355617272466421,0.5074328047871589,-0.2372896671295166,0.6753510236740112,0.5088333487510681,walking
1761225848639730200,-0.5161413772258907,0.0877718069553375,0.3740717975676059,-0.2385328263044357,0.6497780084609985,0.5324417352676392,walking
1761225848649743400,-0.5208218631923198,0.1361485921114683,0.0946118821084499,-0.2072606086730957,0.6601988673210144,0.5482831597328186,walking
1761225848659756300,-0.634576691057533,0.2415314590811729,-0.4203396277457475,-0.1330188661813736,0.736376166343689,0.5612839460372925,walking
1761225848669769200,-0.7320215315695852,0.4008148430645465,-0.8339642680227756,-0.0444017276167869,0.8268229961395264,0.5779222249984741,walking
1761225848679782100,-0.7442818782057613,0.5034200620144605,-0.8995487930893897,0.0343324989080429,0.8804947733879089,0.6024507284164429,walking
1761225848689795300,-0.6620389907397329,0.4909253221005201,-0.7203560090214014,0.0943220481276512,0.9003985524177551,0.6314377784729004,walking
1761225848699808000,-0.4996393744319677,0.3541542141765356,-0.4111731554716825,0.1338241845369339,0.9009527564048768,0.655673086643219,walking
1761225848709822200,-0.3981557433905079,0.2363712998390197,-0.1098877771735191,0.1446288824081421,0.9080092310905457,0.6780598759651184,walking
1761225848719835400,-0.356814665557444,0.1774398029208183,0.1291793376207351,0.1455537974834442,0.9113563299179076,0.7085115313529968,walking
1761225848729848000,-0.2929515574559569,0.2122685397177934,0.2951537436753511,0.1406142264604568,0.9272353053092957,0.7341495752334595,walking
1761225848739861200,-0.1546158122974447,0.1737064616113901,0.3246329361379146,0.1314649432897567,0.9638180732727052,0.7680806517601013,walking
1761225848749874400,0.0142164308737032,0.1476210032403469,0.3584183013617992,0.1116468608379364,1.0125935077667236,0.8207948803901672,walking
1761225848759887000,0.1437503358194604,0.1352531045764684,0.420959805470705,0.085416056215763,1.0747066736221311,0.8771487474441528,walking
1761225848769901300,0.2762831851191819,0.0376893869251012,0.3716366793751716,0.0679406821727752,1.1523877382278442,0.9305647611618042,walking
1761225848779914200,0.4784259790766983,-0.1780833615213632,0.351801513570547,0.0367603860795497,1.200284719467163,0.9795783758163452,walking
1761225848789927200,0.7371293761026114,-0.4704004204660654,0.5472369919091463,-0.0220350939780473,1.1618728637695312,1.025278925895691,walking
1761225848799940400,1.0045643611166626,-0.8097598010927438,0.9302841230928898,-0.1244168579578399,1.0015370845794678,1.0672751665115356,walking
1761225848809953300,1.1825813794035465,-1.085436106359959,1.3439490953803062,-0.2605676651000976,0.6864835619926453,1.1085031032562256,walking
1761225848819966200,1.1773624757114798,-1.1798217784971,1.5465630870461462,-0.3920548558235168,0.2704610824584961,1.142906904220581,walking
1761225848829980200,0.903791618290916,-1.054375197663903,1.2316694546341895,-0.4990635216236114,-0.1083254739642143,1.1403807401657104,walking
1761225848839993300,0.3537817276023328,-0.816844790917635,0.2664391058444976,-0.5619367957115173,-0.2699633836746216,1.1086108684539795,walking
1761225848850006300,-0.346885721010901,-0.4094511539846658,-1.1694131972074508,-0.5512005686759949,-0.1639545410871505,1.0710362195968628,walking
1761225848860019200,-0.9571096592415124,0.1399123285591602,-2.630408124822378,-0.4772581458091736,0.1445726603269577,1.022851586341858,walking
1761225848870032400,-1.289511987271905,0.5520739105463027,-3.681142920157313,-0.3478438556194305,0.5169084668159485,0.9864912629127502,walking
1761225848880045000,-1.3471417539417745,0.7381324887305498,-4.121688885107636,-0.1818634122610092,0.9575449824333192,0.9394103288650512,walking
1761225848890059300,-1.4729649130024014,1.003473862466216,-4.148035624763369,0.0037314088549464,1.3514922857284546,0.8931040167808533,walking
1761225848900072400,-1.3608157667681573,1.166111233052611,-3.6639287505060434,0.1890986114740371,1.550222635269165,0.853817343711853,walking
1761225848910085000,-0.7943307612925767,1.0510177039295434,-2.7345138114631173,0.3688101768493652,1.5541448593139648,0.8296539783477783,walking
1761225848920098300,-0.1470517337187193,0.8643898014247416,-1.7080910350859164,0.5262754559516907,1.4578042030334473,0.8224948644638062,walking
1761225848930111200,0.2977225529837422,0.8005915752530097,-0.7819716304570437,0.6338657736778259,1.3408561944961548,0.8126735091209412,walking
1761225848940124200,0.4138623214904218,0.7733826658099889,0.0356371305704116,0.685703694820404,1.165164351463318,0.7937890887260437,walking
1761225848950138400,0.6212528068430722,0.6135732121258973,0.8123790436804295,0.6777920722961426,0.957027792930603,0.7693132162094116,walking
1761225848960151300,0.8615575006082653,0.4632914652436971,1.341896254503727,0.6271853446960449,0.8284679651260376,0.7553622722625732,walking
1761225848970164200,0.95841475049071,0.4535170902043581,1.5433680903971194,0.5264731645584106,0.7742880582809448,0.7583447098731995,walking
1761225848980177200,1.0852579733140766,0.5107429522484541,1.6681453936666248,0.3967151939868927,0.7767072916030884,0.7832889556884766,walking
1761225848990190300,1.1950638443578034,0.5620528682470322,1.7402502604126928,0.2496591061353683,0.8064371943473816,0.8129887580871582,walking
1761225849000203000,1.1899432864736763,0.4793634791225195,1.6956740365833043,0.1099083870649337,0.8363836407661438,0.8278912901878357,walking
1761225849010216200,1.13075503831543,0.3606926760345697,1.6635411147415635,-0.0161036625504493,0.8321082592010498,0.8229787945747375,walking
1761225849020230400,1.1130059580698608,0.1923059481412172,1.6034581097006797,-0.1183978095650672,0.7816778421401978,0.8054802417755127,walking
1761225849030243000,1.1350618686638771,0.0266512755602598,1.4696008433967829,-0.1965904980897903,0.7013107538223267,0.7764652967453003,walking
1761225849040256300,1.0689498125918209,-0.1265460665076971,1.282327628725767,-0.2597236633300781,0.6174669861793518,0.7295480966567993,walking
1761225849050269200,0.9801000011414288,-0.2349409747749566,1.0168097293794154,-0.2907463610172272,0.5149742960929871,0.6655716300010681,walking
1761225849060282000,0.8541592801157385,-0.2027402483940124,0.7091700136184692,-0.3103578686714172,0.4238734245300293,0.5854318141937256,walking
1761225849070295300,0.7049274076126515,-0.0874777924448251,0.4073755167543887,-0.3364656567573547,0.3463722169399261,0.5186258554458618,walking
1761225849080309200,0.5198837786246091,0.0653910483211278,0.056718497043848,-0.3645731806755066,0.3189568519592285,0.4739836156368255,walking
1761225849090322200,0.4094935318216681,0.2209457671701908,-0.464725881960988,-0.3678843080997467,0.3688960671424866,0.4396459758281708,walking
1761225849100335000,0.2957745789874345,0.341107685598731,-1.1957973462641238,-0.3497228920459747,0.5091328024864197,0.4114236831665039,walking
1761225849110348300,0.1563781275285407,0.5195522816479206,-1.7822803068906068,-0.3038246631622314,0.6861212849617004,0.3834720551967621,walking
1761225849120361200,0.012147332982067,0.7088117017000913,-2.081886353799701,-0.2491430640220642,0.8555662035942078,0.3570596277713775,walking
1761225849130374100,-0.0311726071759127,0.7656167079836129,-2.0879332327485085,-0.192503735423088,0.9857691526412964,0.341015875339508,walking
1761225849140388400,0.076714799093781,0.7021808853834867,-1.8245394859492776,-0.1441588401794433,1.04839026927948,0.3322609961032867,walking
1761225849150401300,0.2659045423100702,0.6066875442653894,-1.379421975299716,-0.0967668890953064,1.0421290397644043,0.3234294056892395,walking
1761225849160414200,0.4134470186877995,0.524005169403553,-0.8595616506159305,-0.0531086288392543,0.9467621445655824,0.3233164846897125,walking
1761225849170427400,0.5504729416230694,0.5199556017518043,-0.3029956893473863,-0.0230691246688365,0.80389803647995,0.3273989856243133,walking
1761225849180440000,0.6969546021025628,0.4768874443978071,0.0700374128222465,0.0037550334818661,0.6604524254798889,0.3447004854679107,walking
1761225849190453200,0.8181737014338374,0.4764338554114103,0.2537988199800253,0.0093967514112591,0.5476314425468445,0.3868810832500458,walking
1761225849200466200,0.864065537906438,0.5296738626897335,0.2982452799499034,0.0199697669595479,0.4876081049442291,0.4416588246822357,walking
1761225849210480000,0.8128088864650577,0.5415308892220259,0.1755564733922481,0.0306351371109485,0.4780998826026916,0.4910477995872497,walking
1761225849220493300,0.614434651260823,0.4764291792362928,0.0245043266594409,0.0502069741487503,0.5060255527496338,0.5087010860443115,walking
1761225849230506200,0.3393620840404182,0.3781196116536856,-0.1157967089563608,0.0766633078455925,0.5600548982620239,0.509524405002594,walking
1761225849240519200,0.0685789211096242,0.3268324920088052,-0.1013058267891407,0.1010794341564178,0.5997216105461121,0.4900695085525512,walking
1761225849250532000,-0.0744442694790661,0.1710199990063905,0.0620417378932237,0.1207010596990585,0.6087976694107056,0.4608725011348724,walking
1761225849260545300,-0.1456551099948585,-0.0255137959629297,0.3088198654562235,0.1338592022657394,0.5714460015296936,0.4222729206085205,walking
1761225849270559200,-0.0986297759803011,-0.1182552080243825,0.595973842549324,0.1322197616100311,0.4879714846611023,0.3844028413295746,walking
1761225849280572200,0.0007827844081446,-0.2036415811479091,0.8425450493633747,0.110373318195343,0.3819358646869659,0.3527160286903381,walking
1761225849290585300,0.089592866636347,-0.2979243774324655,0.9932739554911852,0.088917501270771,0.2966015338897705,0.3392431437969208,walking
1761225849300598300,0.177050511342287,-0.3284937032192945,0.9008990386545658,0.071898303925991,0.2275161892175674,0.3337093889713287,walking
1761225849310611200,0.1910711639155633,-0.3399082466810941,0.764784933334589,0.0410370826721191,0.1456866413354873,0.3199770748615265,walking
1761225849320624400,0.098543778197281,-0.405728334069252,0.6177028592765331,0.0149676660075783,0.1226255372166633,0.3080125749111175,walking
1761225849330638000,0.0075747461032122,-0.4524550139307975,0.2373193943440914,0.0110768061131238,0.2051429152488708,0.2827779352664947,walking
1761225849340651300,-0.0271140890327282,-0.4674672896236181,-0.2318827562481164,0.0023182020522654,0.3637493252754211,0.2389715909957885,walking
1761225849350664200,-0.1033258979072794,-0.5268740028381347,-0.4234861090779304,-0.0220084227621555,0.5696247220039368,0.1906940340995788,walking
1761225849360677000,-0.0210959977869875,-0.6355629256159067,-0.3310381270051002,-0.064752958714962,0.7175624966621399,0.1554252505302429,walking
1761225849370690300,0.1430580427063628,-0.7390034263461828,0.1447118377953767,-0.1401999294757843,0.7087974548339844,0.1196110025048255,walking
1761225849380703200,0.3608342399297282,-0.9057657679080964,0.8690630539327859,-0.2478683292865753,0.5129597783088684,0.0826034545898437,walking
1761225849390717200,0.5149827817752957,-0.9519453352808952,1.4975135171949865,-0.3847678899765014,0.1865671873092651,0.0510725788772106,walking
1761225849400730000,0.4875476258283481,-0.8038707430541515,1.6693097612708807,-0.5056237578392029,-0.1231728196144104,0.0454628989100456,walking
1761225849410743300,0.2838674662357196,-0.4671949024230241,1.006194811862707,-0.5848851203918457,-0.2728445827960968,0.0440370552241802,walking
1761225849420756200,-0.1139972948515787,-0.0187894561439752,-0.1608773751765489,-0.6318004131317139,-0.2433567345142364,0.0536169782280921,walking
1761225849430769200,-0.6591552519969642,0.46365912951231,-1.3289888421356677,-0.6204732656478882,-0.0512088723480701,0.0752818509936332,walking
1761225849440782300,-0.9800180219464004,1.0195359394729138,-2.404513210812211,-0.5277547836303711,0.2703739702701568,0.1270763427019119,walking
1761225849450795300,-1.1111308118477463,1.544382820397615,-3.006785276722908,-0.369258850812912,0.6021679043769836,0.1822360157966613,walking
1761225849460809200,-0.991937519255653,1.7643781549751758,-2.8972172330230475,-0.1444832682609558,0.9084402322769164,0.2394708096981048,walking
1761225849470822400,-0.7192569617383182,1.5976093836724756,-2.5930975080817937,0.1692471951246261,1.0112354755401611,0.2185608297586441,walking
1761225849480835000,-0.3231911032991483,1.112459137842059,-2.011347421196103,0.4028114676475525,0.754094123840332,0.2236250936985016,walking
1761225849490848300,0.3135918290983885,0.9267465966165064,-0.6950310136288405,0.5934564471244812,0.5531207919120789,0.3155142366886139,walking
1761225849500861200,0.7730408666349947,1.0547253262758254,-0.1631821449875831,0.7270387411117554,0.4129464030265808,0.4272639453411102,walking
1761225849510874400,0.9406479153927416,0.9143331052452324,0.4621621689528226,0.7614089846611023,0.2270463109016418,0.5013917088508606,walking
1761225849520888300,0.9557504266522824,0.5590232912927866,1.0772428630322215,0.7105937004089355,0.0388622805476188,0.5509901642799377,walking
1761225849530901200,1.0347402306064963,0.2130319253057241,1.50619717438817,0.5927523970603943,-0.0815521627664566,0.5960789322853088,walking
1761225849540914200,1.0843427581652998,0.0453273344576358,1.68993753875792,0.446843147277832,-0.1133452504873275,0.6294459104537964,walking
1761225849550927000,0.881997792699188,-0.0025888474494218,1.6046183856517076,0.2950221300125122,-0.0834224596619606,0.6421907544136047,walking
1761225849560940300,0.6217714969549327,-0.3010463088452816,1.5679524965554474,0.1075521185994148,-0.1586325168609619,0.6215938925743103,walking
