timestamp,acc_x,acc_y,acc_z,gyr_x,gyr_y,gyr_z,activity
1761225851993812000,-0.339902657190524,-0.2544663439780473,-0.0410053796052932,-0.3779244720935821,0.0777979418635368,0.5217400193214417,walking
1761225852003825000,-0.6101394382849336,-0.2836924384623766,-0.3591822714716196,-0.3543115556240082,0.1384045630693435,0.4875440001487732,walking
1761225852013837800,-0.8375143617197871,-0.3770423378109931,-0.3619990824580192,-0.308921605348587,0.1518839448690414,0.4465113580226898,walking
1761225852023851800,-0.8965800794769078,-0.509467525485158,-0.295002937027812,-0.2607381045818329,0.0951663255691528,0.3960090279579162,walking
1761225852033865000,-0.8589104932308197,-0.7091676755309104,-0.1962327661961317,-0.2065942883491516,0.018320633098483,0.3299835324287414,walking
1761225852043878000,-0.8581714383665472,-0.8551414960861206,-0.2061895120650529,-0.1443431675434112,-0.0527215860784053,0.2859233915805816,walking
1761225852053890800,-0.848746388221532,-0.7881202162146568,-0.2253402027368545,-0.0697641894221305,-0.1164861619472503,0.2634846568107605,walking
1761225852063903700,-0.7319783500149846,-0.6343962199240922,-0.2579103469520807,-0.0068427473306655,-0.1213224679231643,0.2564901411533355,walking
1761225852073917000,-0.6785383631851524,-0.6180535724103451,-0.4131996928632259,0.0404665768146514,-0.0609580092132091,0.2700852155685425,walking
1761225852083929900,-0.6528026680998503,-0.5912655187278986,-0.35513445738554,0.0441273599863052,-0.0136719848960638,0.2872378230094909,walking
1761225852093943800,-0.6692430768996477,-0.6157341895520687,-0.0740045628875493,0.0115862507373094,0.0396546833217144,0.2954130172729492,walking
1761225852103957000,-0.7727869649391621,-0.7674433388888835,0.117985743433237,-0.0132453292608261,0.0970548614859581,0.2996115088462829,walking
1761225852113970000,-0.7764167728088796,-0.7967489283502102,0.1612918011963367,-0.0442210137844085,0.0954287573695182,0.3041633665561676,walking
1761225852123982800,-0.797883558403328,-0.7081722347527742,0.4121306023269891,-0.0834144875407219,0.0770034119486808,0.3124980032444,walking
1761225852133995800,-0.7095614240888506,-0.6809200706899166,0.416929527041316,-0.0866228714585304,0.086217924952507,0.3365487456321716,walking
1761225852144009000,-0.6537153259653598,-0.697238168284297,0.0746621500134468,-0.0438604988157749,0.0909005627036094,0.3528496921062469,walking
1761225852154021600,-0.7476881064526736,-0.6973936511069536,-0.0963911667406559,0.0195177514106035,0.0614871308207511,0.3422445356845855,walking
1761225852164035800,-0.9749887225423008,-0.7806248920232057,-0.0234732300460338,0.1009103506803512,0.000560661079362,0.2969319224357605,walking
1761225852174049000,-1.1906392328485846,-0.8542518537700176,0.0428939698308706,0.1855798512697219,-0.0420640781521797,0.2309209257364273,walking
1761225852184061700,-1.329200000668317,-0.9188128810077903,0.0841617997646331,0.2572074234485626,-0.0950790867209434,0.170082613825798,walking
1761225852194075000,-1.37093311002627,-0.9297416867792606,0.2612386145919561,0.3172390162944793,-0.1190577149391174,0.1249153241515159,walking
1761225852204088000,-1.2418217230752109,-0.8477928868889808,0.2015034000754356,0.3720492720603943,-0.076382428407669,0.0983899757266044,walking
1761225852214100700,-1.1495033587314187,-0.7847083619445562,0.0014010989695787,0.4164439439773559,-0.0189822893589735,0.0806567370891571,walking
1761225852224114000,-1.1369716478079557,-0.6849854204326867,0.1533189226210117,0.4243018627166748,-0.0105067789554595,0.0432095006108284,walking
1761225852234126800,-1.1616554226875304,-0.6398252592355013,0.5373930587649345,0.3888002336025238,-0.0216058306396007,0.002028439193964,walking
1761225852244140800,-1.1752240023780611,-0.7036082878381014,0.9405220239907502,0.3289688527584076,-0.0464493930339813,-0.0444146916270256,walking
1761225852254154000,-1.1389857641093433,-0.8116554055809975,1.209821779963374,0.2449349761009216,-0.093598835170269,-0.0856239572167396,walking
1761225852264167000,-1.1133674117933958,-0.7987456551253795,1.376716223472357,0.1487695574760437,-0.1453709602355957,-0.095678724348545,walking
1761225852274179800,-1.0361156106129288,-0.572506457722187,1.4230764081090688,0.0568828359246254,-0.1458196341991424,-0.0760876387357711,walking
1761225852284192800,-0.941225788345933,-0.332784093889594,1.2043471479445695,-0.0085334563627839,-0.0914530605077743,-0.0438617914915084,walking
1761225852294206000,-0.9462959312170744,-0.2243067680358886,0.9521317977637052,-0.0719261467456817,-0.0215375423431396,-0.0173613801598548,walking
1761225852304219000,-0.9404074577003716,-0.1213718787401914,0.8768547307223081,-0.1153393983840942,0.0320905297994613,0.0189968943595886,walking
1761225852314232800,-0.9164869222782552,-0.0442857164502143,0.5071183320105076,-0.0785984992980957,0.1320721358060836,0.0621192306280136,walking
1761225852324246000,-0.9860575213063508,0.0592003769874572,-0.2108633490949869,0.0031546831596642,0.286850243806839,0.0812857374548912,walking
1761225852334258700,-1.207444237177074,0.1550987917751073,-0.5492512543410063,0.0958476737141609,0.3980011641979217,0.0651204511523246,walking
1761225852344272000,-1.3396769710190592,0.1679050818562507,-0.400888492822647,0.1737153232097625,0.4348606467247009,0.0339071378111839,walking
1761225852354284800,-1.1609661252491177,0.0038946693509817,-0.107898064661026,0.2379303276538849,0.4206860661506653,0.0205312427133321,walking
1761225852364298000,-0.8431831280712038,-0.1642185022979974,0.1383995859086513,0.285783588886261,0.3808214962482452,0.0106927258893847,walking
1761225852374311000,-0.6817075678057968,-0.2647381471455097,0.3943243120014667,0.3076107501983642,0.3437990844249725,-0.0039319260977208,walking
1761225852384324900,-0.6037519657375291,-0.3106108405262232,0.595582212883234,0.3160303235054016,0.3249644041061401,-0.0193407088518142,walking
1761225852394337800,-0.4512076442182063,-0.3523492105811834,0.7282558223605156,0.3027832806110382,0.3476945757865906,-0.0166660286486148,walking
1761225852404350700,-0.1771615157024003,-0.4219441403329372,0.77048986697793,0.2759463489055633,0.4223179519176483,0.0255820918828248,walking
1761225852414364000,0.1952857859359122,-0.4648404482513666,0.6974070951104163,0.2281982898712158,0.5292320847511292,0.1028438135981559,walking
1761225852424377000,0.530993786181882,-0.5236263992190361,0.722450935474038,0.1635407358407974,0.6115911602973938,0.1889054626226425,walking
1761225852434389800,0.7417137812834232,-0.7019038220077752,0.801344439446926,0.096283733844757,0.6204001307487488,0.2498117238283157,walking
1761225852444403000,0.7121728486962616,-0.9313134661406278,0.9011702568113804,0.0254186131060123,0.5747753381729126,0.272674947977066,walking
1761225852454416600,0.599589950687252,-1.1666238587498663,1.0039069931864737,-0.0467104613780975,0.4349305331707001,0.2677998840808868,walking
1761225852464429800,0.4874787253106012,-1.3081868771255016,1.0856582246780395,-0.1117938533425331,0.2152133285999298,0.2403608113527298,walking
1761225852474443000,0.3597205430667847,-1.3082377305299042,1.00301851991415,-0.1652189791202545,0.0286843348294496,0.2039813846349716,walking
1761225852484456000,0.1290900062363129,-1.069305055770278,0.6481570342510938,-0.2156374156475067,-0.0440876074135303,0.1686886399984359,walking
1761225852494468900,-0.1531378852319903,-0.6391758554160595,0.0601186608761548,-0.244227185845375,0.0294838789850473,0.1462081670761108,walking
1761225852504481800,-0.3709710185406729,-0.2482335870683193,-0.5637836375623941,-0.2623348236083984,0.1428961902856826,0.1280496716499328,walking
1761225852514495000,-0.5071140211615711,0.0873041894435882,-1.0236562342733144,-0.2295246571302414,0.2953731417655945,0.1213718280196189,walking
1761225852524509000,-0.5239825922455639,0.3484492805331945,-1.5956266854226588,-0.1565758883953094,0.5145071148872375,0.1077814474701881,walking
1761225852534521900,-0.5507293640695512,0.573543399554491,-2.056985721299052,-0.0553271174430847,0.7376578450202942,0.1015352085232734,walking
1761225852544535000,-0.4727217395531013,0.7805705314874649,-2.025906107902527,0.0749416798353195,0.8727805018424988,0.1097619831562042,walking
1761225852554547700,-0.1587897917801514,0.9112199416607618,-1.6510685866594317,0.2044893056154251,0.8976327776908875,0.135193794965744,walking
1761225852564561000,0.2149939278273843,0.8748334540277719,-1.0554261680215598,0.3099267780780792,0.8347067832946777,0.1717757731676101,walking
1761225852574573800,0.5143509501451626,0.7483890943288802,-0.4501151728063821,0.3796405792236328,0.7350221872329712,0.2114918828010559,walking
1761225852584586800,0.76649181031771,0.6260556770801544,0.117388946583867,0.4136547446250915,0.6291553974151611,0.2407661378383636,walking
1761225852594601000,0.8713488267824053,0.5304109447926283,0.5706149448871612,0.4206708669662475,0.5485693216323853,0.269499123096466,walking
1761225852604614000,0.9104095020607114,0.50021337492764,0.752908617579937,0.3984425365924835,0.4806930720806122,0.2867521643638611,walking
1761225852614627000,0.948000908504054,0.4323813631951809,0.9107523241490124,0.3500552475452423,0.4170323610305786,0.3007910549640655,walking
1761225852624640300,1.003967345071584,0.3646796998441219,1.091263205078244,0.2854578793048858,0.3573669195175171,0.3098596334457397,walking
1761225852634653200,1.0389851016346363,0.3078928137391805,1.1566145059108734,0.2040362358093261,0.314886212348938,0.3144452571868896,walking
1761225852644666000,0.9812881880126892,0.2503770288378,1.218468027755618,0.1015868335962295,0.2556273937225342,0.3133884966373443,walking
1761225852654679000,0.9317325683355332,0.3006114245593547,1.2838000393658875,-0.0081347431987524,0.2084116041660308,0.3081076145172119,walking
1761225852664692200,0.899618862650916,0.3427496075868606,1.1512427497446536,-0.0989136472344398,0.1783594340085983,0.3045879602432251,walking
1761225852674706200,0.9088586193569004,0.4041951331526041,0.8559083888053893,-0.1781786233186721,0.1358797401189804,0.3001265525817871,walking
1761225852684719000,0.8813118562616408,0.4356657916933298,0.6249830794125795,-0.2425179332494735,0.0482191443443298,0.2887591123580932,walking
1761225852694732300,0.774355894756317,0.373624053800106,0.34012101264894,-0.2617747485637665,-0.0289689898490905,0.2699666023254394,walking
1761225852704745000,0.541869911918044,0.321288301885128,-0.3197434105306863,-0.224899023771286,-0.0143825896084308,0.2301547676324844,walking
1761225852714758100,0.2297810347285121,0.3473340127676725,-0.9924877735495566,-0.156509667634964,0.0398254767060279,0.1670205295085907,walking
1761225852724771000,-0.070636127634067,0.3910165026277303,-1.3111392971903084,-0.0806157141923904,0.1075270250439643,0.0998004674911499,walking
1761225852734784000,-0.1941478862134739,0.4719371285140514,-1.3790309301555157,-0.0031485818326473,0.1953468173742294,0.0477403774857521,walking
1761225852744798200,-0.1267961505449377,0.5232587349504232,-1.2611217590898274,0.0561650767922401,0.3015382289886474,0.0062733627855777,walking
1761225852754811100,0.0343379941379651,0.5273433739155531,-1.0089724598824976,0.0847453400492668,0.4146014750003814,-0.0130105558782815,walking
1761225852764824000,0.176925040065404,0.5314730210661888,-0.5438771600872278,0.086062803864479,0.4898118078708648,-0.0127479676157236,walking
1761225852774837000,0.3088978625958785,0.5063046775400638,0.0515063153535127,0.0518933832645416,0.4939915239810943,-0.0137648349627852,walking
1761225852784850200,0.4960619908692315,0.3844891466856002,0.6406254697024821,-0.0003567712847143,0.4435113072395324,-0.0059886714443564,walking
1761225852794863000,0.6752185711126775,0.2803343602061272,1.0784195055961607,-0.0662086606025695,0.3797650635242462,0.0123298680409789,walking
1761225852804876000,0.8593402629502117,0.1620844128787517,1.350825410890579,-0.1323187053203582,0.3400565385818481,0.0401585698127746,walking
1761225852814890200,0.9902991043988616,0.1028670847564935,1.4225766418933867,-0.1990849077701568,0.3133484423160553,0.0733396038413047,walking
1761225852824903000,1.0486021672204136,0.1067985789865255,1.446681155580282,-0.2492045313119888,0.2933110892772674,0.0987488254904747,walking
1761225852834916000,1.058074782834202,0.0987742624849081,1.41160399698019,-0.2829720973968506,0.2598462998867035,0.1248264610767364,walking
1761225852844929300,1.0513167599413544,0.087123572179675,1.305285894986987,-0.276666522026062,0.2033281475305557,0.1699936687946319,walking
1761225852854942200,1.0271290249504148,0.1454658710330724,1.0539677859067915,-0.2309728413820266,0.1383344382047653,0.2093306183815002,walking
1761225852864955100,0.8997808482795954,0.0994745197087526,0.8109674233168364,-0.1733777225017547,0.0344658344984054,0.2309901118278503,walking
1761225852874968000,0.7209414076939225,0.0147422265797853,0.6781698951989412,-0.1402815729379654,-0.0918902084231376,0.238359123468399,walking
1761225852884982000,0.5760784709900617,0.0332061040312051,0.7035486666053533,-0.0973442271351814,-0.165243774652481,0.2581202983856201,walking
1761225852894995200,0.4614524132482707,0.0121416886925697,0.5518003543019294,-0.0628486797213554,-0.1661995351314544,0.2757667303085327,walking
1761225852905008000,0.3775469263322651,-0.2125742446660995,0.3445119410842657,-0.0657025277614593,-0.1800250709056854,0.2652701437473297,walking
1761225852915021000,0.1521610578227788,-0.3080442049086094,0.5063181215435266,-0.0993946939706802,-0.1914505958557129,0.2455046623945236,walking
1761225852925034000,0.0027041809247806,-0.3430857076734304,0.6603507453918457,-0.1478336006402969,-0.1748383343219757,0.2178948670625686,walking
1761225852935047200,-0.0401132713374681,-0.4473094677358865,0.5813561191320419,-0.2001546323299408,-0.130885437130928,0.1944793909788131,walking
1761225852945060000,-0.0112156964214518,-0.501938299024105,0.4580599943310022,-0.2436437755823135,-0.0653567761182785,0.181864783167839,walking
1761225852955073000,-0.0304588694159872,-0.5007119720995425,0.3541232345163822,-0.2703315317630768,-0.0204104520380496,0.1597473621368408,walking
1761225852965087200,-0.0694517036224715,-0.5105559052437544,0.1801829641491174,-0.2618115544319153,0.0066850818693637,0.1385368853807449,walking
1761225852975100200,-0.1647692680485546,-0.509918776383996,-0.2491863577485084,-0.1990078389644622,0.0477926060557365,0.1087377592921257,walking
1761225852985113000,-0.2176996613884344,-0.4173018674850464,-0.5461094491839409,-0.1058597862720489,0.0118372719734907,0.072594404220581,walking
1761225852995126000,-0.2157858636563643,-0.4030097227603197,-0.4944675247520208,-0.0310280937701463,-0.0924315452575683,0.0309687312692403,walking
1761225853005139200,-0.17216905944366,-0.4904284784942865,-0.2337725155174732,0.0202577300369739,-0.2197229266166687,-0.0065043424256145,walking
1761225853015152000,-0.0670852484857663,-0.5418365941703319,-0.0873801772892475,0.0414137877523899,-0.333651602268219,-0.024198904633522,walking
1761225853025165000,0.0171562471852637,-0.5101654446214438,0.0118786538422107,0.0394276045262813,-0.4132271111011505,-0.0307766459882259,walking
1761225853035179300,0.0494115258981939,-0.4222475071936845,0.029739304703474,0.0202389173209667,-0.4202920794486999,-0.0294688642024993,walking
1761225853045192000,-0.0282810595860239,-0.3739484634488821,-0.063643327870965,-0.0073508974164724,-0.4038712978363037,-0.0394892767071723,walking
1761225853055205000,-0.1071420677951071,-0.325437822780013,-0.0424713605046272,-0.0455379858613014,-0.4179790019989013,-0.0574220903217792,walking
1761225853065218300,-0.1600715752189979,-0.3130219933211803,0.1138531736731529,-0.0906463414430618,-0.4546219706535339,-0.0717144757509231,walking
1761225853075231000,-0.1639163958125747,-0.3538181140899658,0.1875695672690868,-0.1178647428750991,-0.4926081895828247,-0.0910575315356254,walking
1761225853085244200,-0.1492153688928578,-0.3842921628087759,0.0772094964087009,-0.1112869977951049,-0.5279214382171631,-0.1156193315982818,walking
1761225853095257000,-0.1937693169583566,-0.362031231161952,-0.1141752452343702,-0.0839269906282424,-0.6022684574127197,-0.1519169211387634,walking
1761225853105270300,-0.2662697040943428,-0.3039782706439495,-0.1661094306111335,-0.044129516929388,-0.7127928137779236,-0.1839273273944854,walking
1761225853115284200,-0.285491998697631,-0.2362695930302143,-0.2684802562832832,0.0204913280904293,-0.7889596223831177,-0.2095196694135666,walking
1761225853125297200,-0.2876030360348522,-0.2033306155025959,-0.6646943275541066,0.1073612496256828,-0.777194082736969,-0.217297688126564,walking
1761225853135310000,-0.2760245889819227,-0.1126490585803985,-1.0533148749560115,0.2103828936815261,-0.7008013725280762,-0.2059254944324493,walking
1761225853145323000,-0.2835223973914049,-0.13181845395267,-1.205994915151596,0.2910415232181549,-0.6200902462005615,-0.2085047662258148,walking
1761225853155336200,-0.2997313903218135,-0.3456804003417492,-0.9813888719081878,0.3375339210033417,-0.5879058241844177,-0.2321939915418625,walking
1761225853165349000,-0.2574971995739266,-0.6379828462392091,-0.4885732060164213,0.3188816606998443,-0.6177979111671448,-0.2626842856407165,walking
1761225853175362000,-0.2468463339610025,-0.8199977019906044,0.0802694685012102,0.2391559332609176,-0.6964843273162842,-0.3099144399166107,walking
1761225853185376300,-0.2884932628728449,-1.0466332052350045,0.4906716396003961,0.1135447472333908,-0.7504863142967224,-0.3849532604217529,walking
1761225853195389000,-0.4169577302224934,-1.186266716852784,0.5884487077414989,-0.0245885699987411,-0.7975007891654968,-0.4733740389347076,walking
1761225853205402000,-0.549522545563057,-1.1110405032157895,0.5694996771216392,-0.1495917588472366,-0.8347461819648743,-0.5380851626396179,walking
1761225853215415000,-0.6408847051605582,-0.8713374286055564,0.3573866202265024,-0.2318598479032516,-0.8235810399055481,-0.5869474411010742,walking
1761225853225428200,-0.6994823670145124,-0.5956166996747255,-0.0543465072154998,-0.2777024209499359,-0.7863301038742065,-0.6211397647857666,walking
1761225853235441200,-0.7013460419945419,-0.3214186502665281,-0.4927344173491,-0.2658080160617828,-0.7017641663551331,-0.6448217034339905,walking
1761225853245454000,-0.6483066718548536,0.0475263058066368,-0.9699842653185128,-0.2220229804515838,-0.5716040134429932,-0.6457031965255737,walking
1761225853255467300,-0.6297182912409305,0.4008844011694192,-1.25891635800004,-0.1595207899808883,-0.4305431842803955,-0.6224403977394104,walking
1761225853265481000,-0.5427758112492039,0.6194102477163076,-1.3716811519145964,-0.067072607576847,-0.2953179776668548,-0.5873343348503113,walking
1761225853275494100,-0.3846830618225038,0.7748889787197113,-1.3655571160763502,0.0274607259780168,-0.2091340869665146,-0.5455613136291504,walking
1761225853285507300,-0.2698473433854058,0.7725275102853775,-1.1193518199652432,0.1099255084991455,-0.1932155787944793,-0.5105620622634888,walking
1761225853295520000,-0.1161845392301678,0.7162111643016338,-0.7860808193415403,0.1911611109972,-0.1891774088144302,-0.4655418694019317,walking
1761225853305533200,0.0775203524561598,0.70072016518116,-0.5040764800965786,0.2641314566135406,-0.1969447880983352,-0.4164145290851593,walking
1761225853315546000,0.1983423787612468,0.6631248862802982,-0.2273965507447719,0.318429946899414,-0.2238122373819351,-0.3626171946525574,walking
1761225853325559000,0.2540017221409827,0.6013426761060953,0.0535585717082023,0.3551376461982727,-0.2367988675832748,-0.3044646978378296,walking
1761225853335573200,0.2363680119033902,0.5480950700432062,0.2636491828650236,0.3784080743789673,-0.2510430514812469,-0.2625981867313385,walking
1761225853345586200,0.1516574922148138,0.413535208427906,0.4936065240085124,0.3665900230407715,-0.2863291203975677,-0.2464826107025146,walking
1761225853355599000,0.0588633635854348,0.2111281375110149,0.6581389145612716,0.3482119143009186,-0.2889645993709564,-0.2350179404020309,walking
1761225853365612000,-0.0816277147097513,0.1058347023904323,0.59713762563169,0.3147248029708862,-0.230700209736824,-0.2370517998933792,walking
1761225853375625200,-0.1650673742122948,0.0695914226204156,0.5058639480352402,0.2656412124633789,-0.177279382944107,-0.2544921040534973,walking
1761225853385638000,-0.2277602329580113,0.0452811572283506,0.5759697499185801,0.191859170794487,-0.1305411756038665,-0.2691136598587036,walking
1761225853395651000,-0.2230245462056249,0.023057050460577,0.7359136436372995,0.0972649753093719,-0.1080743968486785,-0.2696539163589477,walking
1761225853405664300,-0.0512318457936868,0.0119604869067668,0.90598262552917,-0.0112694920971989,-0.1207917928695678,-0.2512248456478119,walking
1761225853415678000,0.1702628239635378,0.0352864174365997,1.0433464386492968,-0.1101816520094871,-0.1409722417593002,-0.2089738845825195,walking
1761225853425691100,0.3169312026541679,0.106198859527707,0.9286515534549952,-0.1771425753831863,-0.1473659574985504,-0.1502583622932434,walking
1761225853435704000,0.3759983086507767,0.2896294272959232,0.5403758739680051,-0.1891320645809173,-0.1045974865555763,-0.08242978900671,walking
1761225853445717000,0.3187732137916609,0.4958253691017627,0.072115972661972,-0.1611494272947311,-0.0626961067318916,-0.0140946758911013,walking
1761225853455730200,0.2013561736244708,0.6237058990836143,-0.2068131969213485,-0.1066534221172332,-0.0383100174367427,0.0450906455516815,walking
1761225853465743000,0.1024951096389442,0.6216758545607328,-0.3078711864292621,-0.0282624773681163,-0.0350841283798217,0.0897696986794471,walking
1761225853475756300,0.035185660475865,0.5874000754714012,-0.3850818518817424,0.0723539367318153,-0.0339895077049732,0.1335555911064148,walking
1761225853485770200,-0.0894960369320586,0.544292755150795,-0.3882768485307693,0.1630681306123733,-0.0325782969594001,0.1651875525712967,walking
1761225853495783200,-0.2636269710332155,0.458496632182598,-0.2660240953028202,0.2432519495487213,-0.030125867575407,0.1668988317251205,walking
1761225853505796000,-0.46509047748968,0.295495104458928,-0.1881821462094783,0.3030439019203186,0.0228103194385767,0.157055526971817,walking
1761225853515809000,-0.6586359042979777,0.1777495995223522,-0.0685305153906345,0.3340379893779754,0.0872261747717857,0.1335958540439605,walking
1761225853525822200,-0.778628019117564,0.0170657010912895,0.2409936989426612,0.329431802034378,0.1463712602853775,0.0928372368216514,walking
1761225853535835100,-0.8138277811840177,-0.1176736087441444,0.6222527776658535,0.2930437922477722,0.1937059462070465,0.0642494782805442,walking
1761225853545848000,-0.749973879302293,-0.1688485001862049,0.98530107691586,0.2360952943563461,0.224817007780075,0.04048503190279,walking
1761225853555862300,-0.6791323104903102,-0.1672533399492502,1.3381962309420108,0.1545535326004028,0.2348425090312957,0.0232054181396961,walking
1761225853565875000,-0.6063638287363573,-0.201614459234476,1.6730349192738532,0.064566396176815,0.1996834576129913,0.0185166578739881,walking
1761225853575888100,-0.5211121148431673,-0.2276502332448959,1.844220337975025,-0.015440116636455,0.1481033712625503,0.012801794335246,walking
1761225853585901000,-0.4914900798438116,-0.2159118646562099,1.7905688272863625,-0.0732642710208892,0.1126748099923133,0.0248627178370952,walking
1761225853595914200,-0.5420011736148967,-0.1432382581114769,1.6417419553875925,-0.1071276739239692,0.091088518500328,0.039681039750576,walking
1761225853605927000,-0.5529354227464646,-0.0557838465422391,1.4351134673833843,-0.119563840329647,0.0711446404457092,0.0689411908388137,walking
1761225853615939800,-0.6010013883877545,0.0279471605896949,1.260661740362644,-0.1194380819797515,0.0403045862913131,0.0940978154540062,walking
1761225853625953000,-0.6209035550139844,0.0959738181114196,1.1722837842077016,-0.1124941557645797,0.0115674808621406,0.1249033957719802,walking
1761225853635967000,-0.6622418198354542,0.1584685604691505,1.0955202780008315,-0.0979869663715362,-0.0096554663032293,0.1646854877471923,walking
1761225853645980000,-0.7056361404038966,0.1904126817405223,1.002966497465968,-0.0694916769862175,-0.0104000866413116,0.2026584446430206,walking
1761225853655993000,-0.8376771510660648,0.1772872427076101,0.6904740809768438,-0.0175376422703266,0.0384387858211994,0.2316453009843826,walking
1761225853666005800,-1.0040594072692095,0.1847457420200109,0.4167348812520504,0.030966242775321,0.0715458765625953,0.2530653476715088,walking
1761225853676019000,-1.0974855867244302,0.1522428178220987,0.4714695110023021,0.0611821636557579,0.0730359852313995,0.2675370573997497,walking
1761225853686032100,-1.158955516079068,0.0275672213613986,0.6057809508144855,0.0738774538040161,0.0828976705670356,0.2755574584007263,walking
1761225853696044800,-1.1883338785156607,-0.1598287429064512,0.7193886252939701,0.065567672252655,0.0960934832692146,0.2722648382186889,walking
1761225853706059000,-1.2535561461411415,-0.3266039439499378,0.8658312324047088,0.0322472602128982,0.1099083647131919,0.2594070732593536,walking
1761225853716072000,-1.256277241668105,-0.4600333402305841,0.9912824894130228,-0.023423571139574,0.1349591761827469,0.2402494102716446,walking
1761225853726084900,-1.2047203651711345,-0.5915595332384109,1.0644359884291887,-0.0947787091135978,0.1694372594356537,0.2132556140422821,walking
1761225853736098000,-1.1450097005739808,-0.7437976748853922,1.0951771636515857,-0.1624660491943359,0.2028342634439468,0.1785143315792083,walking
1761225853746111000,-1.1074628639247268,-0.8346060730576514,1.0918167473077771,-0.2219096720218658,0.1950149536132812,0.1432146579027176,walking
1761225853756124000,-1.0506431715287268,-0.846515122038126,0.995551252773404,-0.2596735060214996,0.1832397133111953,0.1025576964020729,walking
1761225853766136800,-1.024903750116378,-0.8500023796319961,0.6113052671939134,-0.2564572095870971,0.2133981436491012,0.0668862462043762,walking
1761225853776150000,-1.0129833760242908,-0.730050889083743,0.1045201126605272,-0.2232715040445327,0.2584307789802551,0.0441653691232204,walking
1761225853786164000,-0.9533885928917676,-0.5408271248668431,-0.258016145414114,-0.1787455826997757,0.2923770248889923,0.0336882248520851,walking
1761225853796177000,-0.8422114334948361,-0.4363128574252128,-0.4863777417987585,-0.1153493672609329,0.3397577702999115,0.037619512528181,walking
1761225853806190000,-0.6721737235240638,-0.4294242669552564,-0.6726970167458057,-0.0422168336808681,0.3947725296020508,0.0557127632200717,walking
1761225853816202800,-0.4670690840862691,-0.4091887036561966,-0.7872393417268991,0.0384381003677845,0.4484575390815735,0.0836396515369415,walking
1761225853826216000,-0.2992259980829432,-0.3386994554132223,-0.8019418208181858,0.1234914734959602,0.49600750207901,0.12187971919775,walking
1761225853836228900,-0.1461445374796167,-0.3359007646054029,-0.8202361869215965,0.2133763134479522,0.5411428213119507,0.1652198284864425,walking
1761225853846242000,-0.0176462043929845,-0.3828220902562141,-0.7571966701626777,0.2773047089576721,0.5590105056762695,0.2031834572553634,walking
1761225853856255000,0.0730413438785821,-0.4972247145056724,-0.4803729484260082,0.2911818623542785,0.541911244392395,0.2308570146560669,walking
1761225853866269000,0.2004679560804739,-0.7062731231331825,-0.1245411564260721,0.2607786655426025,0.5292186141014099,0.2573056519031524,walking
1761225853876281900,0.3944051221527159,-0.9091694388717412,0.0938993499249219,0.1886623799800872,0.5210704803466797,0.2939681112766266,walking
1761225853886294800,0.5911184384074062,-1.0582499932706355,0.3371691771060228,0.0776988416910171,0.4862461686134338,0.3427444398403168,walking
1761225853896308000,0.7646938940502703,-1.1571791540563106,0.5422457594931125,-0.0490047521889209,0.4187075495719909,0.3959250450134277,walking
1761225853906321200,0.8348781679973005,-1.180171907109022,0.5925076277434825,-0.1742913126945495,0.3088036775588989,0.4486130177974701,walking
1761225853916333800,0.7543490256465971,-1.0807499943703411,0.5097071794599294,-0.2799235582351684,0.1988274008035659,0.4900129437446594,walking
1761225853926347000,0.5015093695549294,-0.8736696709454059,0.1611246279358863,-0.349181205034256,0.1314707398414611,0.5142884850502014,walking
1761225853936361000,0.1475164834199473,-0.565305732563138,-0.4247685501039028,-0.3531392216682434,0.1182578429579734,0.5156508088111877,walking
1761225853946374000,-0.2490057587509043,-0.1842261020600795,-1.0471499225854872,-0.3028792440891266,0.1438548117876052,0.5022292733192444,walking
1761225853956387000,-0.5497368824334815,0.18271452845335,-1.5786632756620644,-0.2069888859987259,0.2242536693811416,0.4707742929458618,walking
1761225853966400000,-0.7443452257655561,0.4800368483394384,-1.96862588532269,-0.0826839804649353,0.3463532328605652,0.4360650479793548,walking
1761225853976413000,-0.8338473636448382,0.7066554004490375,-2.0815806488513946,0.0449630208313465,0.4950095117092132,0.3988468050956726,walking
1761225853986425900,-0.8503355571091175,0.7698100680202246,-2.01221076002717,0.1749979853630066,0.6456573605537415,0.3572476804256439,walking
1761225853996439000,-0.7648234387140721,0.7639806312143802,-1.7703817793041468,0.3000827133655548,0.8083726167678833,0.312987208366394,walking
1761225854006452000,-0.5648696061681956,0.7579653164476156,-1.3762731558799743,0.3969453275203705,0.9148505926132202,0.2819760143756866,walking
1761225854016466000,-0.2574003333370201,0.7951192813217639,-0.6498702679097652,0.4414677023887634,0.9351997971534728,0.2753622829914093,walking
1761225854026479000,0.1431954236167483,0.7106535301744937,0.1839876171290874,0.4345927536487579,0.9234278202056884,0.2873076498508453,walking
1761225854036491800,0.497165312468633,0.4892103348761796,0.8461725922107696,0.3905860781669616,0.9101993441581726,0.3048726916313171,walking
1761225854046505000,0.7021743095122277,0.2958072391480207,1.3918570939809085,0.3111676871776581,0.8665440082550049,0.3114134073257446,walking
1761225854056518000,0.7458833220530301,0.0970820716142654,1.876204206734896,0.2296959608793258,0.7886481881141663,0.2947093546390533,walking
1761225854066530800,0.7251325757734477,-0.0554980153381824,2.1041981388509274,0.1694275587797165,0.6530624032020569,0.2790172100067138,walking
1761225854076544000,0.9001704321190714,-0.2001543235540389,2.089754602956772,0.1294168382883072,0.448560506105423,0.2725841999053955,walking
1761225854086558000,1.116744121684879,-0.2912052983105182,2.0598457869052886,0.0951600670814514,0.1799889653921127,0.2742081880569458,walking
1761225854096571000,1.1429437810201195,-0.3230371913790703,2.029263017114997,0.0556329302489757,-0.1090865060687065,0.272401213645935,walking
1761225854106583800,1.0477574600245805,-0.3301993380933999,1.878959642922878,-0.0036796615459024,-0.3427402675151825,0.2585495710372925,walking
1761225854116597000,0.8163914941921829,-0.3052028440028428,1.5358189901918171,-0.0802789032459259,-0.4955419898033142,0.2264953404664993,walking
1761225854126610000,0.4669613493954762,-0.2455266661971807,1.1062193666696547,-0.1787223815917968,-0.5415220260620117,0.1878448873758316,walking
1761225854136622800,0.0690330398189835,-0.1746989797800779,0.6073024612933396,-0.2862151265144348,-0.4866788387298584,0.1309833228588104,walking
1761225854146636000,-0.2636451825433411,-0.1222965923696756,0.0801987413525581,-0.3700985908508301,-0.3477081954479217,0.0736864805221557,walking
1761225854156649000,-0.4738269608486443,-0.001458382114768,-0.5179641356736421,-0.4210024774074554,-0.1396515667438507,0.0134616009891033,walking
1761225854166663000,-0.5886699127441272,0.1785235065042972,-1.0670376953601837,-0.4177187979221344,0.0995090901851654,-0.0484704785048961,walking
1761225854176676000,-0.703774511250481,0.3901186770051718,-1.549357686200738,-0.3515808582305908,0.3807298243045807,-0.0914496630430221,walking
1761225854186689000,-0.7130253738723695,0.6010989304780959,-1.884866236618161,-0.2482243925333023,0.6280850172042847,-0.127216175198555,walking
1761225854196702000,-0.578069937068224,0.708381493589282,-1.7411492550790308,-0.129904493689537,0.7718271017074585,-0.1544445157051086,walking
1761225854206715000,-0.2706659480256028,0.6680816319048404,-1.1701526173979044,-0.0272345766425132,0.7884180545806885,-0.1634822189807891,walking
1761225854216728000,0.1133766970015131,0.5398457126140594,-0.3983762177407741,0.0375408455729484,0.7067959308624268,-0.1589574515819549,walking
1761225854226740700,0.4564231503767892,0.4138134408473968,0.355106400334835,0.0700303465127945,0.58012855052948,-0.1487474292516708,walking
1761225854236755000,0.7237963587336241,0.3121650842308998,0.8398714462399482,0.0776186287403106,0.4757785201072693,-0.1117312610149383,walking
1761225854246767900,0.8927754264969379,0.3070779902249574,1.118905245241523,0.0519060716032981,0.3728617429733276,-0.0713857039809227,walking
1761225854256780800,1.0134690406493845,0.2173988883435726,1.4127765478909016,0.0043874187394976,0.2438855767250061,-0.0210629720240831,walking
1761225854266794000,1.0924027305021882,0.043719314739108,1.7152081736147402,-0.0622456707060337,0.0724339261651039,0.0182974822819232,walking
1761225854276807000,1.0953598267421123,-0.0865776287347078,1.8779694628417487,-0.1286214143037796,-0.0930262058973312,0.0435420759022235,walking
1761225854286819800,1.0334010909572242,-0.1704886686086654,1.7187421929597853,-0.1873912513256073,-0.2267933338880539,0.0678591355681419,walking
1761225854296833000,0.9052606679301708,-0.1119131455212831,1.2843109114974736,-0.2160047739744186,-0.279996395111084,0.1023086756467819,walking
1761225854306846000,0.6930496305532753,0.0516875171393156,0.6050462067991494,-0.2095287591218948,-0.2616677284240722,0.1340080201625824,walking
1761225854316860000,0.4878981562990695,0.2243055989921092,0.0536643701702356,-0.190255120396614,-0.2330946326255798,0.157038003206253,walking
1761225854326872800,0.3525861611422151,0.2578554018944501,-0.2495569446265697,-0.1577259451150894,-0.2056435644626617,0.1715178787708282,walking
1761225854336886000,0.2566581184012815,0.2293722347319126,-0.3990823201835155,-0.1249421909451484,-0.205041229724884,0.1666463315486908,walking
1761225854346899000,0.1630669211100786,0.0870364784181118,-0.5561632256865501,-0.0737344026565551,-0.1896023452281952,0.1535891145467758,walking
1761225854356911900,0.0072125023618107,-0.0041945290803909,-0.8998965836137532,-0.0007398123852908,-0.103984460234642,0.1209986209869384,walking
1761225854366925000,-0.1537774983097799,0.0234130242913961,-1.2103992875903844,0.0644884556531906,-0.0169403776526451,0.0792301371693611,walking
1761225854376938000,-0.2524787138247862,-0.0415326183497905,-1.1273685376822948,0.1186220571398735,0.0315494574606418,0.026572847738862,walking
1761225854386951000,-0.1908980541046708,-0.1362637429237365,-0.7911287503808736,0.1468760669231414,0.0165135152637958,-0.0311032310128211,walking
1761225854396965000,-0.0307404902358073,-0.2805629082649946,-0.3547340598911047,0.1521464437246322,-0.0500573925673961,-0.0809495002031326,walking
1761225854406977800,0.1262214193969033,-0.3687216687113046,0.080019877654314,0.1307644546031952,-0.1508774906396865,-0.1245047003030777,walking
1761225854416991000,0.2883070013194345,-0.3693728260964155,0.2445019993245601,0.1179951727390289,-0.2258142083883285,-0.1462940424680709,walking
1761225854427004000,0.3740589015534147,-0.2235667633235454,0.1164268235534429,0.1208724528551101,-0.2736653387546539,-0.1390451937913894,walking
1761225854437017000,0.474788937748596,-0.0316506912827491,-0.056806175327301,0.130959615111351,-0.3209793269634247,-0.1151787266135215,walking
1761225854447029800,0.6271045285459608,0.1012789387822151,-0.0918716434895992,0.130401149392128,-0.4149705469608307,-0.0807432532310485,walking
1761225854457043000,0.7390868668459355,0.1408458100169897,-0.0436228686273097,0.122272104024887,-0.4835505783557892,-0.0377538949251174,walking
1761225854467056000,0.6935477162685245,0.0989133786946535,-0.1763496695965528,0.1344291716814041,-0.5032984018325806,-0.0071381987072527,walking
1761225854477069800,0.4736827300723641,0.0466162052243947,-0.540047957187891,0.1611455976963043,-0.4788276553153991,-0.0092923333868384,walking
1761225854487083000,0.1873723824628628,-0.0940787981450557,-0.7379682380795478,0.1726083755493164,-0.5031050443649292,-0.0460996180772781,walking
1761225854497096000,-0.0152383577999658,-0.3149836487829685,-0.5841267528891563,0.1703754812479019,-0.5862935781478882,-0.091925635933876,walking
1761225854507108900,-0.0867154115038923,-0.4936895261168479,-0.4332452865481376,0.1542202085256576,-0.6925779581069946,-0.1330794692039489,walking
1761225854517122000,-0.1395173561585135,-0.6040507660210133,-0.3804050922423601,0.1171205639839172,-0.7909883260726929,-0.1791648715734481,walking
1761225854527135000,-0.2429371611606329,-0.6446341208219528,-0.4038029189646244,0.0718084797263145,-0.8643091917037964,-0.2263374328613281,walking
1761225854537148000,-0.423385827041231,-0.622346885690093,-0.4999216985046863,-0.0100764753296971,-0.8650808334350586,-0.2811297178268432,walking
1761225854547162000,-0.6379714480623603,-0.543121373283863,-0.5573217480719089,-0.115753635764122,-0.791313111782074,-0.3198094666004181,walking
1761225854557175000,-0.6711578244797886,-0.4303396282345056,-0.5631155290424823,-0.2016661763191223,-0.6690750122070312,-0.3438721299171448,walking
1761225854567188000,-0.6877372033588588,-0.1553694254100322,-0.6517465831756591,-0.2494171857833862,-0.5082376599311829,-0.3534440696239471,walking
1761225854577201000,-0.6854352830920368,0.1202770692408084,-0.7532184141814708,-0.2578316032886505,-0.4024228453636169,-0.3452247679233551,walking
1761225854587214000,-0.6193658240526915,0.3383282840132713,-0.679904756167531,-0.2204560041427612,-0.4096088707447052,-0.3251679837703705,walking
1761225854597226800,-0.5804823319721967,0.3525689908117055,-0.6412456474274396,-0.1416780650615692,-0.4585477113723755,-0.3270679712295532,walking
1761225854607240000,-0.5680285451231524,0.1540238560199737,-0.7876239571303129,-0.0332474634051322,-0.525214672088623,-0.3700428605079651,walking
1761225854617253000,-0.6221526782922446,0.0312596461385488,-0.987625135949254,0.0918666645884513,-0.5558667778968811,-0.4127931892871856,walking
1761225854627267000,-0.6880738879673183,0.2185246775031089,-1.1271803216338157,0.1903575509786605,-0.5414795875549316,-0.4264285862445831,walking
1761225854637280300,-0.6712866384912282,0.3909937062740325,-0.9734873050034044,0.2397276014089584,-0.528359055519104,-0.4066301882266998,walking
1761225854647293200,-0.5186923038177191,0.343875396746397,-0.6768231567651033,0.2544429004192352,-0.5283257961273193,-0.3829725384712219,walking
1761225854657306000,-0.3933899537608027,0.2996738514482975,-0.3739198218762874,0.2370350211858749,-0.538702666759491,-0.3669510781764984,walking
1761225854667319000,-0.4278142014101147,0.2987386164247989,-0.0857762492239475,0.2038965076208114,-0.5438033938407898,-0.3522424399852752,walking
1761225854677332200,-0.5191044648151845,0.3664104691594839,-0.0509498505145311,0.1937716454267501,-0.5233147144317627,-0.335462749004364,walking
1761225854687345200,-0.641518838345632,0.4324000678956508,-0.222116564515233,0.2052163183689117,-0.4783810377120971,-0.3266258537769317,walking
1761225854697358000,-0.8370799158252775,0.5175514632195234,-0.4821662615835666,0.2338892370462417,-0.412568986415863,-0.3453931510448456,walking
1761225854707372300,-1.0567468952313064,0.596072626748681,-0.6154191322535276,0.273930937051773,-0.3465777337551117,-0.3722226321697235,walking
1761225854717385000,-1.1443773940198123,0.66537821816504,-0.5833575220823287,0.305191308259964,-0.2675077617168426,-0.3986726701259613,walking
1761225854727398100,-1.1127386123705654,0.7250801149338484,-0.4376578422933816,0.3179981708526611,-0.192501962184906,-0.4123794436454773,walking
1761225854737411000,-0.9631004240889102,0.7221370472192764,-0.1460363643974065,0.2981797754764557,-0.1485803872346878,-0.4132705926895141,walking
1761225854747424000,-0.7506779359184205,0.6713245593488216,0.2744382879048586,0.2560578882694244,-0.1510563343763351,-0.4034920036792755,walking
1761225854757437000,-0.5893081741150469,0.6178834765404463,0.6198597450494766,0.2036487460136413,-0.1759223043918609,-0.3798442482948303,walking
1761225854767450000,-0.4446448151038959,0.622486586421728,0.7525298473954201,0.1604589372873306,-0.1843573451042175,-0.3565106987953186,walking
1761225854777463300,-0.3421228174580261,0.7104296582907438,0.6789011320829391,0.1232991069555282,-0.1673077046871185,-0.3161674737930298,walking
1761225854787477000,-0.2911567464610561,0.7773106529086827,0.6741448774665594,0.0969119668006897,-0.1557637006044387,-0.2638531327247619,walking
1761225854797490200,-0.2245617657102644,0.7846633537590503,0.7460019069314002,0.0675703510642051,-0.1609185636043548,-0.2052748054265976,walking
1761225854807503000,-0.1494616626709699,0.7096259406924247,0.8479489542335271,0.0429701954126358,-0.1861797124147415,-0.1510509848594665,walking
1761225854817516000,-0.1664869586866348,0.5957412028372288,0.941536753991246,0.0181622002273798,-0.214873269200325,-0.1171173900365829,walking
1761225854827529200,-0.2629623331120237,0.4240086716473102,0.9818594120293856,-0.0154708614572882,-0.2390646338462829,-0.1124256998300552,walking
1761225854837542100,-0.4666355149745941,0.2688601955115795,0.931111806088686,-0.0166264232248067,-0.2215368151664734,-0.1174063757061958,walking
1761225854847555000,-0.6319910584785043,0.1948585552334785,0.6870341696560383,-0.0011409398866817,-0.168049618601799,-0.1470252424478531,walking
1761225854857568000,-0.7745728985078633,0.1306219376444816,0.4720061020970344,0.021291110664606,-0.0989649668335914,-0.1945002526044845,walking
1761225854867582200,-0.8504128601290285,0.0477437479496002,0.447069813761115,0.0307088457047939,-0.0316351950168609,-0.2400451004505157,walking
1761225854877595100,-0.7534852484241128,-0.0027758944541215,0.5226163453936576,0.0282744336873292,0.032851692289114,-0.2702609896659851,walking
1761225854887608000,-0.5816696055280044,-0.0046855274677276,0.6507470507442951,0.0272091683000326,0.0861378163099289,-0.2746914327144623,walking
1761225854897621200,-0.3663567296782508,0.041693946391344,0.8064204275369644,0.020161835476756,0.1230105906724929,-0.2640481293201446,walking
1761225854907634000,-0.1932830860776826,0.1083218430310487,1.011575920379162,-0.0002116127870976,0.1191330254077911,-0.2400136590003967,walking
1761225854917647000,-0.0422953828832134,0.0974304466605186,1.3016717961430548,-0.0481399334967136,0.0619497820734977,-0.2116700261831283,walking
1761225854927660300,0.0626016733309254,0.0488911644190549,1.5216402427136897,-0.0971426367759704,0.0079760290682315,-0.1822916269302368,walking
1761225854937674000,0.1381890118978917,0.0400526089251041,1.523271643307805,-0.1445617228746414,-0.0108267497271299,-0.1353121697902679,walking
1761225854947687200,0.1443735092191025,0.1104389813154935,1.4045032250642775,-0.1939138323068618,-0.0181624256074428,-0.0902413725852966,walking
1761225854957700000,0.0811830396821722,0.1708393817424774,1.3307850779026746,-0.2437538653612136,-0.0448737666010856,-0.0466729663312435,walking
1761225854967713000,0.0385998528335243,0.1728232490360736,1.1601029325485228,-0.2706824243068695,-0.0282266121357679,0.0040884809568524,walking
1761225854977726200,0.0514677003761753,0.2438373979359865,0.8283937744140625,-0.2744437456130981,0.0158348027616739,0.074633702635765,walking
1761225854987739100,0.0405452878128737,0.3647124330699444,0.606205313706398,-0.2759686708450317,0.044427566230297,0.1518730968236923,walking
1761225854997752000,0.0008863543804734,0.3479828320652246,0.4688187042325735,-0.2538517415523529,0.0744042620062828,0.2273645550012588,walking
1761225855007765000,-0.1376192126533016,0.2758019774734974,0.0673959584027528,-0.18105448782444,0.1434483081102371,0.2819678783416748,walking
1761225855017779200,-0.3462121325982734,0.2503331896960735,-0.2817021414279937,-0.0990881249308586,0.1849378645420074,0.3044517934322357,walking
1761225855027792100,-0.6329605610977858,0.1227823300600051,-0.2882908721685409,-0.0275532230734825,0.1761534214019775,0.2905556857585907,walking
1761225855037805000,-0.8098185455426573,-0.1097305407851934,-0.1821095482975244,0.041401457041502,0.1536664515733719,0.2775679230690002,walking
1761225855047818200,-0.8559870800647884,-0.2625385912746191,-0.1246902095079422,0.1036033183336258,0.122925579547882,0.2575622498989105,walking
1761225855057831200,-0.9238485370874404,-0.4080786965876817,-0.0238180979609489,0.1392897218465805,0.100369207561016,0.2281884551048278,walking
1761225855067844000,-0.984309873921424,-0.5718225671112537,0.1155284134089946,0.1458283215761184,0.098082885146141,0.1940155625343322,walking
1761225855077857000,-0.9916644744679332,-0.6485878268837928,0.215738261654973,0.1240987479686737,0.1227263361215591,0.1664789021015167,walking
1761225855087870200,-0.935520562441647,-0.6560188536673783,0.3316507059454918,0.0871455296874046,0.160284087061882,0.155826523900032,walking
1761225855097884200,-0.8718458165191113,-0.6094231067091226,0.4277642247885465,0.0379869788885116,0.2163459658622741,0.1515741795301437,walking
1761225855107897000,-0.8123100700974464,-0.6200713419735431,0.4640928447544574,-0.0076987510547041,0.2705426514148712,0.1391896903514862,walking
1761225855117910300,-0.7609821069855243,-0.6266898833304644,0.4031207819193601,-0.0392090231180191,0.3501118123531341,0.128818854689598,walking
1761225855127923000,-0.7496544380895793,-0.5856447562366723,0.2414788521111011,-0.0454559996724128,0.4418680965900421,0.1205446720123291,walking
1761225855137936100,-0.8309836447767913,-0.5341466241896152,0.0298556245595216,-0.0303775444626808,0.5322661399841309,0.0930973514914512,walking
1761225855147949300,-0.8828977372135967,-0.5122141938447952,-0.089928692728281,0.008046543225646,0.5908735394477844,0.0630433112382888,walking
1761225855157962000,-0.8095766996107995,-0.4793021043241023,-0.0685077190369367,0.0462701134383678,0.6154769062995911,0.0366915613412857,walking
1761225855167975200,-0.6185306884028017,-0.4424433230042457,0.0503203204393386,0.0620743781328201,0.6448315978050232,0.0423286743462085,walking
1761225855177989000,-0.3703719932015985,-0.3754483466178178,0.1726946542203426,0.0719545483589172,0.683375895023346,0.0812485143542289,walking
1761225855188002000,-0.0943474224859848,-0.3208604318618774,0.2581260355293751,0.0689571648836135,0.7154691219329834,0.1352414339780807,walking
1761225855198015200,0.1614729481832124,-0.3240817319959402,0.336491716235876,0.0535580851137638,0.7355562448501587,0.2004467546939849,walking
1761225855208028200,0.3823993713321164,-0.354324894568324,0.4444359581261873,0.0299291871488094,0.7348161339759827,0.2787348926067352,walking
1761225855218041000,0.5540300861153751,-0.4034948759287595,0.5110761297255754,0.010981879197061,0.7393208146095276,0.3595953583717346,walking
1761225855228054000,0.6935262350890785,-0.444223776680231,0.4562877239614725,-0.0088631976395845,0.7633188366889954,0.4311739206314087,walking
1761225855238067200,0.6579529635351151,-0.490375287002325,0.3632803544402122,-0.0350299887359142,0.801699697971344,0.4827470183372497,walking
1761225855248080100,0.5317137710195035,-0.5565747290968894,0.3530523904144764,-0.0678893998265266,0.8052190542221069,0.5118290185928345,walking
1761225855258094000,0.4077455191105604,-0.5802227311879397,0.4565022434949874,-0.1044255420565605,0.7589044570922852,0.5255471467971802,walking
1761225855268107300,0.3760041538696735,-0.6798211695373058,0.4936199680119753,-0.1413377523422241,0.6543716788291931,0.528252363204956,walking
1761225855278120000,0.3773377405609935,-0.7801701339930296,0.3996586587667465,-0.1881486475467682,0.5271888971328735,0.51677006483078,walking
1761225855288133000,0.2839825074501335,-0.7366063020765781,0.1626952382534742,-0.2244454026222229,0.4087589383125305,0.5154653787612915,walking
1761225855298146000,0.1885962069030851,-0.439341265335679,-0.3478992454349994,-0.2214098423719406,0.3454720973968506,0.5340609550476074,walking
1761225855308159200,0.0997244484823662,-0.1282739132136106,-1.0701228018939497,-0.1754878908395767,0.3582440912723541,0.5547981858253479,walking
1761225855318172200,-0.0067378820038284,0.1398632287204265,-1.649717172050476,-0.1191897243261337,0.3912611603736877,0.5606153011322021,walking
1761225855328185000,-0.1055759509895462,0.33695056591928,-1.828518910974264,-0.0662250444293022,0.4012304544448852,0.5637120604515076,walking
1761225855338199000,-0.2030247461575083,0.4165256224155426,-1.9154893384188407,0.0156281255185604,0.4629539251327514,0.5660430192947388,walking
1761225855348212000,-0.257570118679665,0.5362964956998825,-2.0920751548588274,0.1082483381032943,0.5613194108009338,0.5564005374908447,walking
1761225855358225200,-0.3383727807421237,0.6605804624944925,-2.093032601714134,0.2024502009153366,0.6605845093727112,0.5370175838470459,walking
1761225855368238300,-0.4249871247580274,0.71862407066226,-1.840992023578286,0.2857144474983215,0.7470847964286804,0.5047973394393921,walking
1761225855378251000,-0.3935845264848321,0.7228466567933559,-1.4174889633655547,0.3432390987873077,0.796149492263794,0.4757091701030731,walking
1761225855388264200,-0.2341098029141314,0.6604448534160852,-0.8356003447920084,0.3685508370399475,0.7848171591758728,0.4594180881977081,walking
1761225855398277000,-0.021976470415946,0.5807365259289741,-0.2449561728328466,0.3709862530231476,0.7580943703651428,0.4493178725242615,walking
1761225855408290000,0.1632546074355952,0.5119616803884506,0.1786591155827045,0.3449133932590484,0.7075513005256653,0.4356231093406677,walking
1761225855418304300,0.3226439542777836,0.5030003752976656,0.5987725333571434,0.2927835881710052,0.662359893321991,0.4262885749340057,walking
1761225855428317200,0.4450638807661831,0.473567944586277,0.8971247808128595,0.2303628176450729,0.6229621767997742,0.4297517538070678,walking
1761225855438330000,0.5813294868534431,0.4856961892753839,1.07066290012002,0.1635459065437317,0.5953844785690308,0.4335442185401916,walking
1761225855448343000,0.676518401664868,0.455423216086626,1.183075811856985,0.0930195525288581,0.5416112542152405,0.4393365681171417,walking
1761225855458356200,0.7303183078482747,0.4445300661504268,1.313050099247694,0.0287571847438812,0.4679632782936096,0.4491930603981018,walking
1761225855468369000,0.8062062002643943,0.4207032003611326,1.3920306969821452,-0.015131177380681,0.370236188173294,0.4550352394580841,walking
1761225855478382000,0.8397416823804378,0.3380325159370899,1.371322255474329,-0.0393176786601543,0.2400875687599182,0.4473403990268707,walking
1761225855488395300,0.808089018336311,0.2094797857820987,1.2537193738788366,-0.0554516427218914,0.1053265556693077,0.4301611185073852,walking
1761225855498409000,0.6893349939443171,0.1665267792403698,1.0131646508753298,-0.0508201941847801,0.0209116507321596,0.4060069024562835,walking
1761225855508422100,0.5242205657199025,0.1988759741812944,0.6845639801502227,-0.0459870919585228,-0.0215990580618381,0.3753944039344787,walking
1761225855518435000,0.2999825520712882,0.1933838065057992,0.4598158980876207,-0.0538473166525363,-0.0317220091819763,0.3285549581050873,walking
1761225855528448000,0.1068989523547701,0.1678834545463323,0.2535597505271434,-0.0583115704357624,-0.0026184557937085,0.2798928916454315,walking
1761225855538461200,-0.074119754799013,0.2216314113467931,0.0472562566936016,-0.0462206713855266,0.0357421189546585,0.2414407134056091,walking
1761225855548474000,-0.217573696921207,0.2615636087626218,-0.2792494875788688,0.0043897754512727,0.1394440084695816,0.1913378536701202,walking
1761225855558487300,-0.4536236193187534,0.2363146012157201,-0.6347247212260961,0.0498851463198661,0.2524212300777435,0.1139840185642242,walking
1761225855568500000,-0.6584976648710668,0.1704962673932313,-0.6215811620146036,0.0771103724837303,0.3286161422729492,0.0278499349951744,walking
1761225855578514200,-0.7333518303252756,0.0424450570195913,-0.4085001368701457,0.0838576629757881,0.4015626311302185,-0.0597834251821041,walking
1761225855588527000,-0.6405677481658756,-0.0647165100604295,-0.1455623171448707,0.0652970299124717,0.4729451835155487,-0.1304290890693664,walking
1761225855598540000,-0.5148216729294508,-0.0917173297107219,0.1696896271854639,0.0195171609520912,0.5135014057159424,-0.1815497875213623,walking
1761225855608553200,-0.3085035660486668,-0.0646264936894178,0.6127367613017559,-0.0554761216044425,0.4962923228740692,-0.2209768146276474,walking
1761225855618566100,-0.0556541557479649,-0.1016997945427894,1.046469539105892,-0.1317700296640396,0.4154761433601379,-0.2375088185071945,walking
1761225855628578800,0.2232594509400427,-0.093705288657546,1.3481243352383374,-0.2121692597866058,0.301199346780777,-0.2224553078413009,walking
1761225855638592000,0.4833441097239032,-0.0578080458462238,1.4714099386453627,-0.2786034047603607,0.1689563393592834,-0.180691659450531,walking
1761225855648605000,0.6521789832435548,-0.0026589900761842,1.405726044857502,-0.3200152814388275,0.0749411657452583,-0.1221761405467987,walking
1761225855658619000,0.6716780489616095,0.0719879623681306,1.1357470744490623,-0.3408260941505432,0.0091755809262394,-0.0770695358514785,walking
1761225855668632000,0.5183888273591175,0.1332633920639753,0.8470867844462394,-0.3468256592750549,-0.0402172692120075,-0.0444527305662632,walking
1761225855678645000,0.3463577150814235,0.168393157634139,0.551922519376874,-0.324764221906662,-0.056846123188734,-0.0229190252721309,walking
1761225855688658000,0.1327423638645559,0.1254459963113069,0.2439326750040054,-0.2918619513511657,-0.0445929169654846,-0.0220785327255725,walking
1761225855698670800,-0.0856419187871739,0.0220370597630739,-0.0229670340895652,-0.2477918118238449,-0.0319844000041484,-0.0382390730082988,walking
1761225855708684000,-0.2221035223705694,-0.0509597873866558,-0.1880377693027257,-0.1986889690160751,-0.0158570930361747,-0.0661862790584564,walking
1761225855718697000,-0.2696939794545993,-0.1103156471967697,-0.3366290788799524,-0.1388335824012756,0.0146479690447449,-0.0867721065878868,walking
1761225855728710000,-0.2346648612473159,-0.0321866978555917,-0.3527338259845972,-0.0834755152463913,0.018361747264862,-0.0940667763352394,walking
1761225855738724000,-0.0803184952747076,0.0311924261212348,-0.1996177324593067,-0.056268073618412,-0.0027157762087881,-0.0840697363018989,walking
1761225855748736800,0.1008868707247078,0.0280021056473255,0.0164963767707347,-0.0360376387834548,-0.0275108721107244,-0.0608488284051418,walking
1761225855758750000,0.2431079876828938,-0.0269493817239999,0.1489911225497722,-0.0215018354356288,-0.0516189560294151,-0.0360104031860828,walking
1761225855768763000,0.285797995906882,-0.0806043995440006,0.2190028164088726,0.000217841938138,-0.0830218866467475,-0.0240405555814504,walking
1761225855778775800,0.2974881414396688,-0.136160282549262,0.2425292379468679,0.0233041942119598,-0.1385861337184906,-0.0241620652377605,walking
1761225855788789000,0.3013269158849492,-0.2261041728466749,0.3116717477560043,0.0482345782220363,-0.2140369564294815,-0.0245934966951608,walking
1761225855798802000,0.3248511454658582,-0.2767021411836147,0.3895166194587945,0.0694882944226265,-0.3073432147502899,-0.0198805164545774,walking
1761225855808815000,0.3056344768857583,-0.2835883935660123,0.3584264846682548,0.0958139076828956,-0.3908876478672027,-0.0187702439725399,walking
1761225855818829000,0.2183124595245346,-0.2656727976471185,0.2274760457217693,0.1274243295192718,-0.4494783282279968,-0.0305790491402149,walking
1761225855828842000,0.0795410628951154,-0.2779576942026615,0.1140273611962795,0.1440635025501251,-0.5138296484947205,-0.0498147942125797,walking
1761225855838855000,-0.0200648098420351,-0.2694394567042589,0.1126496431022882,0.142202690243721,-0.5799181461334229,-0.0614267736673355,walking
1761225855848867800,-0.0413016591381281,-0.24539748685956,0.1119143145650625,0.1354949921369552,-0.6232395172119141,-0.0650143176317215,walking
1761225855858881000,-0.0193946372292004,-0.2141910322129726,0.0259878432154655,0.1302086412906646,-0.6684353351593018,-0.0620684139430522,walking
1761225855868894000,-0.0091535579935647,-0.200478733202815,-0.111206458556652,0.1323250532150268,-0.7101081609725952,-0.0537979714572429,walking
1761225855878907000,-0.0461270563008496,-0.1963128456950187,-0.3496639170199632,0.1498999446630478,-0.7169460654258728,-0.0519012100994586,walking
1761225855888919800,-0.1703054940614849,-0.2275029337286949,-0.6704243956387043,0.1757613718509674,-0.7013564705848694,-0.0538413226604461,walking
1761225855898933800,-0.3234839852984994,-0.2952700635313987,-0.8164373791605234,0.1831513941287994,-0.7023836970329285,-0.0793363377451896,walking
1761225855908947000,-0.4280845062514767,-0.4328723615825176,-0.7231096916437149,0.1694355905055999,-0.7479338645935059,-0.1218576952815055,walking
1761225855918959900,-0.5159058149043471,-0.6229080267041921,-0.5954816751182079,0.1381560713052749,-0.7758732438087463,-0.163080632686615,walking
1761225855928973000,-0.5933372835006564,-0.7433890940845013,-0.5074351428747177,0.0716689303517341,-0.7800770401954651,-0.2106915563344955,walking
1761225855938985700,-0.7312946055345236,-0.7992635415196419,-0.4142600155711173,-0.0106858471408486,-0.7923526167869568,-0.2650637626647949,walking
1761225855948999000,-0.8819540266226976,-0.7493909648478031,-0.3059703212440013,-0.1072488725185394,-0.8073477745056152,-0.3226242363452911,walking
1761225855959012000,-0.9881438991263508,-0.6370838515728712,-0.2669815421581268,-0.1832660138607025,-0.8081910610198975,-0.3766638934612274,walking
1761225855969025000,-1.0489143019095062,-0.5215186132848263,-0.4442290373772382,-0.2421461045742035,-0.7580661177635193,-0.4300530850887298,walking
1761225855979039000,-1.081520394220948,-0.3363479238510131,-0.673711162224412,-0.2898065745830536,-0.6779751181602478,-0.4724152386188507,walking
1761225855989052200,-1.0630699607729912,-0.0964373439699411,-0.8378823182493448,-0.3213495910167694,-0.5662096738815308,-0.4922528862953186,walking
1761225855999064800,-1.005278500735387,0.1634305667906999,-0.9743442140936852,-0.3177234232425689,-0.4329447448253631,-0.4909459948539734,walking
1761225856009078000,-0.8245105763051659,0.3459136245757341,-1.0408920312345027,-0.2922918200492859,-0.3459914922714233,-0.4594514667987823,walking
1761225856019091000,-0.6063422744916752,0.5153939929246902,-0.8974702332496642,-0.2454530894756317,-0.3442537784576416,-0.4171029031276703,walking
1761225856029103900,-0.3646947878153994,0.5465373192071914,-0.6966717665731906,-0.1749658733606338,-0.3874430358409881,-0.3631837368011474,walking
1761225856039116800,-0.12200630418621,0.5034890355974435,-0.6378361312448978,-0.0590347200632095,-0.4382467865943908,-0.300269216299057,walking
1761225856049130000,-0.0543975798156112,0.5206733946323394,-0.6711755062669515,0.0820401161909103,-0.4911523461341858,-0.2569286525249481,walking
1761225856059144000,-0.1209820391723886,0.525482256218791,-0.6110510001718997,0.2198479920625686,-0.5766881704330444,-0.234743058681488,walking
1761225856069156900,-0.212978514618054,0.4531102629691362,-0.3781295485258102,0.3406825363636017,-0.6978532075881958,-0.2431000620126724,walking
1761225856079170000,-0.2962753681164234,0.304150704601407,-0.1782756692230701,0.4316525459289551,-0.8085405230522156,-0.2601716816425323,walking
1761225856089183000,-0.3592308963863179,0.1595657080560922,-0.0138952543616294,0.4824401140213012,-0.8572481870651245,-0.278085708618164,walking
1761225856099196000,-0.4206307561794296,0.084098671400547,0.0651700990468263,0.491804838180542,-0.8248132467269897,-0.2984074652194977,walking
1761225856109208800,-0.5651072143163531,0.0284703076809644,0.1542412981629371,0.4702201783657074,-0.7391204237937927,-0.3392092287540436,walking
1761225856119222000,-0.7162970890194177,-0.009058335724473,0.2924702036798,0.4205503761768341,-0.6436253190040588,-0.4003644287586212,walking
1761225856129235000,-0.8227220854531974,-0.0123053548216819,0.4873369422197341,0.338477075099945,-0.5447070002555847,-0.4700710773468017,walking
1761225856139249000,-0.8692821765761822,-0.0602589461296796,0.7156389173716307,0.2476339787244796,-0.4459345638751983,-0.5405563712120056,walking
1761225856149261800,-0.8399761487234383,-0.0670844082355499,0.879346547538042,0.1474000364542007,-0.3478138446807861,-0.6074142456054688,walking
1761225856159275000,-0.7719419654823839,-0.010811316871643,1.003399628186226,0.0436282604932785,-0.2741507589817047,-0.6633498668670654,walking
1761225856169288000,-0.6347342927720397,0.09595452888906,1.17409580206573,-0.0621458403766155,-0.2598370611667633,-0.7061465978622437,walking
1761225856179301000,-0.4056062055269256,0.2032961287111044,1.2810855197101831,-0.1594202220439911,-0.2764154076576233,-0.7192751169204712,walking
1761225856189313800,-0.1498158098708838,0.3600233984708785,1.141226967164874,-0.2255238741636276,-0.2619570791721344,-0.7091742753982544,walking
1761225856199327000,0.0299301876330748,0.5511188017785549,0.8397890286535025,-0.2640435397624969,-0.2283244132995605,-0.6791935563087463,walking
1761225856209340000,0.1678720929021015,0.7512666955918074,0.6022884325236082,-0.2878255546092987,-0.1922625452280044,-0.6326447129249573,walking
1761225856219353000,0.2820556310407817,0.8385083411931991,0.4319792121350765,-0.296286404132843,-0.1691013723611831,-0.5781131386756897,walking
1761225856229367000,0.4548038420792669,0.8415934477269649,0.3366980524629354,-0.3051395416259765,-0.1690308004617691,-0.510852575302124,walking
1761225856239380000,0.6174206813342868,0.8654758430957794,0.2929378211915492,-0.3027062714099884,-0.1915663182735443,-0.4247369766235351,walking
1761225856249393000,0.6701566846132279,0.9110638743162156,0.2797399014443159,-0.2857232987880707,-0.2291943877935409,-0.3336779177188873,walking
1761225856259405800,0.702664138855785,0.9331289911299944,0.1764841096311807,-0.2522667050361633,-0.2524270713329315,-0.2389847338199615,walking
1761225856269419000,0.6213100169230252,0.9060971918195484,0.0432511127054691,-0.212074801325798,-0.237993523478508,-0.1605288088321685,walking
1761225856279432000,0.5580383353760465,0.8268436223626137,-0.1276356153100729,-0.1575056910514831,-0.194938063621521,-0.0900081694126129,walking
1761225856289444900,0.4169744621615857,0.773882432025671,-0.2133668563485145,-0.1001894026994705,-0.132356971502304,-0.0330253131687641,walking
1761225856299458000,0.2660640254544094,0.6940139455407858,-0.1398451085418462,-0.0500917248427867,-0.0477465167641639,0.0154157038778066,walking
1761225856309471700,0.145867401038669,0.5333025745809078,-0.039737551626563,-0.0080412114039063,0.0449573174118995,0.0401010774075984,walking
1761225856319485000,0.0588746156318113,0.3549111700236797,0.2380032849550247,0.0186069104820489,0.0886914804577827,0.0469952039420604,walking
1761225856329498000,-0.0005852525420486,0.1683954957216978,0.5938046818166971,0.0396195165812969,0.0926561281085014,0.0503808781504631,walking
1761225856339511000,0.0266891598852351,0.0188151751071214,0.8701607860416174,0.0582887642085552,0.1055546030402183,0.0551686733961105,walking
1761225856349524000,0.0639581294411793,-0.1240735389143228,1.0435258868694304,0.054924126714468,0.1012474671006202,0.0536045990884304,walking
1761225856359537000,0.1042057860143482,-0.2077303117662668,1.3241361414074897,0.0139899794012308,0.0732970535755157,0.067903384566307,walking
1761225856369550000,0.1364140746472403,-0.2675502819567918,1.6159990268439053,-0.0400929637253284,0.0270829554647207,0.0937909036874771,walking
1761225856379562800,0.2514188660409301,-0.3168418438702821,1.7363947540283202,-0.1073161363601684,-0.0207085106521844,0.1299207061529159,walking
1761225856389577000,0.3341242199195549,-0.3526023085594177,1.705833027026057,-0.1745660006999969,-0.0686360895633697,0.1717134267091751,walking
1761225856399590000,0.3149269501596689,-0.3916448636591434,1.6154466536581515,-0.2409860640764236,-0.1089210733771324,0.2135954797267913,walking
1761225856409602800,0.1699125492211431,-0.3704921855151653,1.4082219533264635,-0.2826496064662933,-0.1267386823892593,0.2473134994506836,walking
1761225856419616000,-0.0595307779856026,-0.344748087927699,0.9844663796573876,-0.2910458147525787,-0.112022116780281,0.2675100564956665,walking
1761225856429629000,-0.3268696456814184,-0.2827653867453336,0.4615221174836158,-0.2662225067615509,-0.0825164169073104,0.2784061133861542,walking
1761225856439641900,-0.5590465625705198,-0.2065887405157089,0.0658621729642152,-0.2166090905666351,-0.0505504347383976,0.2794919312000274,walking
1761225856449655000,-0.728114221932739,-0.202933140617609,-0.290681566697359,-0.1509342044591903,-0.004353913012892,0.2811175286769867,walking
1761225856459668000,-0.8377401332996786,-0.2420376550376415,-0.5716524712413549,-0.0713791027665138,0.0465798266232013,0.2882545292377472,walking
1761225856469681200,-0.9094582657504826,-0.2726110724776983,-0.7692232080429792,0.0132588241249322,0.107598178088665,0.2904345989227295,walking
1761225856479694800,-0.979959715887904,-0.3437427102774381,-0.8427467094153165,0.0956334397196769,0.1581845134496688,0.2874935269355774,walking
1761225856489708000,-1.0433436621703207,-0.4359259039342403,-0.7924047616660594,0.1661856323480606,0.1899240761995315,0.2718293368816376,walking
1761225856499721000,-1.130511658013612,-0.5835001454234123,-0.6734031191885471,0.2203943729400634,0.2277676612138748,0.2370735704898834,walking
1761225856509734000,-1.240111704286933,-0.715384650349617,-0.5057826994925737,0.2637940347194671,0.2738078534603119,0.1820960640907287,walking
1761225856519747000,-1.3371477448023854,-0.7887690355122089,-0.3379647113978862,0.2852425873279571,0.321853369474411,0.1220657154917717,walking
1761225856529760000,-1.2977492158718409,-0.7995394358515739,-0.1440501590162515,0.2965522408485412,0.3691543042659759,0.0758367031812667,walking
1761225856539773000,-1.1489556617207826,-0.8269149340331554,0.0804769737720489,0.2955923676490783,0.3858198523521423,0.0481930971145629,walking
1761225856549785900,-0.9528959870692342,-0.8131143722176551,0.2631961784005165,0.2955755889415741,0.394772857427597,0.0289957001805305,walking
1761225856559799800,-0.7800714959241449,-0.7614028896808623,0.3067056497812271,0.2928235530853271,0.438171774148941,0.0099341515451669,walking
1761225856569813000,-0.6605063743449747,-0.7047025128155946,0.2821837874650955,0.2867230772972107,0.5264307856559753,0.0048376605845987,walking
1761225856579826000,-0.5295963770067319,-0.6347638841927051,0.3010053923130035,0.2716611623764038,0.6225619316101074,0.0157092716544866,walking
1761225856589839000,-0.2945552663255483,-0.6165092655777931,0.3170645467102527,0.2591850459575653,0.7220948934555054,0.0412492528557777,walking
1761225856599851800,-0.0406066626112908,-0.5750964742153882,0.3170423348784446,0.2510777115821838,0.8178450465202332,0.0861937701702117,walking
1761225856609865000,0.144508478976693,-0.5875286702871322,0.4114624938070774,0.2351408302783966,0.8754846453666687,0.1264463812112808,walking
1761225856619878700,0.3485275334011763,-0.7108411617010831,0.6224491770207882,0.2151617109775543,0.8528392910957336,0.169837549328804,walking
1761225856629891300,0.5057354628173634,-0.8307885605961084,0.9208107768267392,0.1801009178161621,0.7589556574821472,0.2052445411682129,walking
1761225856639905500,0.687871058871597,-0.9392641328841448,1.163797110891342,0.1327980011701584,0.6082821488380432,0.2489719241857528,walking
1761225856649918500,0.7445020237624644,-0.9662199443489312,1.3450655321896074,0.069541797041893,0.4421922266483307,0.2753023207187652,walking
1761225856659931400,0.6407124903988093,-0.8956395106911659,1.3097194935202598,0.0088144820183515,0.3120183646678924,0.278913140296936,walking
1761225856669944600,0.4114309296250343,-0.6969125895917415,0.9827046306818724,-0.0399077832698822,0.2877372503280639,0.2703542709350586,walking
1761225856679957500,0.1492063544693402,-0.4468652310997247,0.4215671237140894,-0.067860834300518,0.3787265121936798,0.2461133599281311,walking
1761225856689970400,-0.0365573278549825,-0.186901458749175,-0.1755114652067422,-0.079848788678646,0.5311605334281921,0.2209709882736206,walking
1761225856699983600,-0.0071537898779381,0.0471387677937746,-0.573819293886423,-0.0745733529329299,0.6841844916343689,0.2115146815776825,walking
1761225856709996500,0.179922523114644,0.2429951018929481,-0.7915466835319995,-0.0498240627348423,0.7906379103660583,0.2210820764303207,walking
1761225856720009500,0.5030480503642931,0.3638210371881723,-0.7894003191530704,-0.0332703664898872,0.8166627287864685,0.2431955188512802,walking
1761225856730023400,0.8299152848929167,0.3815799812406301,-0.5631470932245254,-0.0347801111638546,0.7513774633407593,0.2804566025733948,walking
1761225856740036600,1.068495785214007,0.4078700222730636,-0.2401578326404094,-0.0571377500891685,0.6162214279174805,0.3311431109905243,walking
1761225856750049500,1.2162734403207898,0.4399649501919746,-0.0377981079965829,-0.0816361680626869,0.4172353744506836,0.3842023313045501,walking
1761225856760062500,1.2150580001164226,0.5026344645947217,-0.0479214426040649,-0.0983839854598045,0.2248419523239135,0.4182383418083191,walking
1761225856770075600,1.1025667624462396,0.5770335797578096,-0.3504617893993854,-0.0880586504936218,0.1134203672409057,0.4420067965984344,walking
1761225856780088300,0.8984618746355175,0.826650730139017,-0.9041150780916214,-0.0527090318500995,0.120257630944252,0.4740119874477386,walking
1761225856790101500,0.6652832333579659,1.1915350126445292,-1.4517536365389825,-0.0029521267861127,0.2362785190343856,0.5013072490692139,walking
1761225856800114400,0.4648590433539822,1.4620634336292744,-1.7980419396460054,0.0651329234242439,0.4130585193634033,0.5371314883232117,walking
1761225856810128400,0.3097761432677507,1.6031991665035483,-2.007244077530503,0.1412271559238433,0.6169149875640869,0.5574750900268555,walking
1761225856820141600,0.2753010787466541,1.6655466093450784,-1.8900988765746356,0.2198834866285324,0.7755825519561768,0.5684773325920105,walking
1761225856830154500,0.3330512203931808,1.6193565205782652,-1.4138152432888746,0.2788474857807159,0.855362057685852,0.5762566924095154,walking
1761225856840167400,0.4139434969678521,1.4514368256747725,-0.7581833431124687,0.3283753097057342,0.8496017456054688,0.579793393611908,walking
1761225856850180400,0.5369143353372812,1.2075006435394289,-0.1817044746279716,0.3885683417320251,0.7830330729484558,0.5698544979095459,walking
1761225856860193500,0.6147764504358172,1.1112053383886813,0.1091477724611759,0.4439725577831268,0.7149292230606079,0.5648976564407349,walking
1761225856870206700,0.7102551054414361,1.0805834056317805,0.3982932156324386,0.4665915668010711,0.5541488528251648,0.5277396440505981,walking
1761225856880219400,0.6962596055757254,1.020063178217411,0.7971656924575566,0.4542715549468994,0.368687093257904,0.5103222727775574,walking
1761225856890232600,0.8380898235201835,0.9959148253887892,1.0749030219078064,0.3975371718406677,0.1826549023389816,0.5167980194091797,walking
1761225856900246300,0.931830987208709,0.9104477882444858,1.2631804451853037,0.3086137473583221,0.0675352960824966,0.5447649955749512,walking
1761225856910259500,0.8749640946701168,0.8597744165837764,1.237093233248591,0.1970675140619278,0.0325480215251445,0.5764033794403076,walking
1761225856920272600,0.6740179631512612,0.8153829016715287,1.193200900030136,0.0535574741661548,0.040841594338417,0.5870866179466248,walking
1761225856930285600,0.3382725717706605,0.6267571033477782,1.1904945636808872,-0.094937190413475,0.0557443760335445,0.5645043253898621,walking
1761225856940298500,0.0342623122529825,0.3916869492352008,1.0513029506117104,-0.224845603108406,0.1193546578288078,0.5175122022628784,walking
1761225856950311400,-0.2353059356298297,0.1747100856959819,0.7091600767463445,-0.3338533043861389,0.2107205241918563,0.4516330063343048,walking
1761225856960324600,-0.4443733412187546,0.0957785878002643,0.4765408229172229,-0.4373990893363952,0.2822090089321136,0.3683894574642181,walking
1761225856970337300,-0.6811289642002433,0.0064858548879623,0.3697533498466014,-0.5107486844062805,0.3303973078727722,0.2842037379741668,walking
1761225856980351500,-0.7969346601806581,-0.0271790988266468,0.0945136824309825,-0.5345051884651184,0.3983643651008606,0.1973804235458374,walking
1761225856990364700,-0.8513098820339888,-0.0606879851967096,-0.3104933516263962,-0.5175427198410034,0.4440304040908813,0.108351744711399,walking
1761225857000377300,-0.8229382854871451,-0.0608399608880281,-0.5412976649880409,-0.4595018327236175,0.4411552250385284,0.0245790593326091,walking
1761225857010390500,-0.6975667426515371,-0.0763964264601469,-0.6997112803995609,-0.3773888349533081,0.4375953674316406,-0.0366211831569671,walking
1761225857020403500,-0.5165252254443243,-0.0668079293817281,-0.7619599390417336,-0.2961907982826233,0.426742285490036,-0.0790313929319381,walking
1761225857030416400,-0.3624414924632758,-0.1140051493644714,-0.5663093566477299,-0.2425552606582641,0.363306313753128,-0.1163294985890388,walking
1761225857040429600,-0.2621579396602697,-0.2428910569965839,-0.0856564222365617,-0.2274549007415771,0.2440960854291916,-0.1520744115114212,walking
1761225857050442500,-0.1821520722649991,-0.3784095345109701,0.4137023816883564,-0.2287843525409698,0.1113092750310897,-0.1762018501758575,walking
1761225857060455700,-0.1364981362015009,-0.4433750508964061,0.5653033944755792,-0.2450166046619415,0.0361933447420597,-0.1916097104549408,walking
1761225857070469400,-0.1632706817875616,-0.4136579580247402,0.4638964453995227,-0.2586123049259186,0.0432981252670288,-0.1841368824243545,walking
1761225857080482600,-0.217360236833617,-0.2914782700330018,0.2668342426419258,-0.2623069882392883,0.0819425135850906,-0.1588748842477798,walking
1761225857090495500,-0.2176140837305225,-0.1821253303885459,0.1716162113338708,-0.261864423751831,0.129021868109703,-0.1266628801822662,walking
1761225857100508400,-0.1855847135948017,-0.1637450395673513,0.1129319671750068,-0.2493952959775924,0.1654504686594009,-0.0947046652436256,walking
1761225857110521600,-0.2539253872354515,-0.2288929267823696,0.1184802489519119,-0.2233951240777969,0.1735677719116211,-0.0731298699975013,walking
1761225857120534500,-0.3396742187295108,-0.3359112859994173,0.066793316334486,-0.1632734537124633,0.1680861562490463,-0.0556920617818832,walking
1761225857130547500,-0.4102463960155844,-0.3958317939549684,0.0342740255236625,-0.0855525657534599,0.1144381090998649,-0.0517809465527534,walking
1761225857140560400,-0.5081900528952479,-0.4853618427544832,0.10531681599617,-0.0014541526325047,0.0178331099450588,-0.0655198171734809,walking
1761225857150574300,-0.5571943953651934,-0.5714776991963386,0.1678594891488552,0.083888441324234,-0.080846332013607,-0.086770512163639,walking
1761225857160587500,-0.5722595337564126,-0.6360112539052963,0.1813274580091237,0.1543151438236236,-0.1656539589166641,-0.1110556796193122,walking
1761225857170600400,-0.6246813199870288,-0.6775602388679981,0.3550432719707488,0.1910513192415237,-0.2465535998344421,-0.1340054720640182,walking
1761225857180613600,-0.586185950441286,-0.6996504901230335,0.5472270550370216,0.1912124454975128,-0.3090534806251526,-0.1567070484161377,walking
1761225857190626300,-0.4770462151560932,-0.7238444356590509,0.7283692196071148,0.1473347395658493,-0.3589312732219696,-0.1741339862346649,walking
1761225857200639500,-0.4177528626555576,-0.7539876449882984,0.8932581685125828,0.0798601806163787,-0.3975146114826202,-0.178344190120697,walking
1761225857210652700,-0.2812016993588768,-0.7277168931782245,0.8969716360777616,0.0139243062585592,-0.4069214463233948,-0.1735976338386535,walking
1761225857220665300,-0.1933007861311547,-0.6291811156243086,0.7965905229181051,-0.0371045395731925,-0.4081555306911468,-0.1567706763744354,walking
1761225857230678500,-0.0960302427400834,-0.5345856001287699,0.6045867725938558,-0.0563304312527179,-0.4283561408519745,-0.1303507834672927,walking
1761225857240692500,0.006733546038717,-0.4937123224705457,0.3389075452059507,-0.026241336017847,-0.4945548474788666,-0.1029175519943237,walking
1761225857250705400,0.0727231265085749,-0.4609013552367687,0.112312373971939,0.0338417068123817,-0.6039305925369263,-0.0857383012771606,walking
1761225857260718600,0.0632858288033399,-0.5313175382435321,-0.0735316846787929,0.1011918038129806,-0.7266271710395813,-0.0847025662660598,walking
1761225857270731500,0.002924876754044,-0.6478010604202747,-0.2495850016772746,0.1697785854339599,-0.834465742111206,-0.0806084871292114,walking
1761225857280744400,-0.0718861916272435,-0.7270692429244517,-0.4402770848810672,0.2249685972929,-0.9059023261070251,-0.0883816555142402,walking
1761225857290757400,-0.1655584456648677,-0.8184808676868677,-0.6201543440818786,0.2543222308158874,-0.9368106722831726,-0.1070807725191116,walking
1761225857300770600,-0.3330219212334603,-0.936100700417161,-0.7503846520602703,0.2503263056278229,-0.9323277473449708,-0.1503304094076156,walking
1761225857310783500,-0.504491125312075,-1.0364087483406066,-0.8123685222864151,0.226000964641571,-0.9040404558181764,-0.2056770175695419,walking
1761225857320797400,-0.6742297062058001,-1.0588000283688306,-0.8117372386455536,0.1791233569383621,-0.8673092126846313,-0.276960164308548,walking
1761225857330810600,-0.8452615417804569,-1.046443820142746,-0.7665519430071115,0.1035098135471344,-0.8281236886978149,-0.3646380603313446,walking
1761225857340823300,-0.9990364645406604,-0.9964122535169124,-0.7012918275892734,0.0222004987299442,-0.7869420051574707,-0.453580766916275,walking
1761225857350836500,-1.0815787002794444,-0.8467647128850221,-0.7570049469828605,-0.0478145368397235,-0.7009400129318237,-0.5384810566902161,walking
1761225857360849400,-1.0597502417657525,-0.5993249065428972,-1.0360884303450584,-0.0775237008929252,-0.5507762432098389,-0.5972526669502258,walking
1761225857370862600,-0.9392977428928015,-0.274353532230854,-1.346691087564826,-0.0742272436618805,-0.3892102241516113,-0.6311783790588379,walking
1761225857380875500,-0.6947942091982812,0.1165612635880708,-1.3985060304760932,-0.0457708165049552,-0.2801998853683471,-0.642672598361969,walking
1761225857390888400,-0.3448530096068978,0.3745189568132162,-1.1928133620172738,-0.0046500107273459,-0.235173299908638,-0.6268283724784851,walking
1761225857400901600,0.0682643387351185,0.5170253935188055,-0.8148866425871849,0.0313973166048526,-0.2359243631362915,-0.585727334022522,walking
1761225857410915300,0.4261656304854899,0.5294681109845638,-0.4146528142809867,0.042425200343132,-0.2820047736167907,-0.5409936904907227,walking
1761225857420928500,0.6100133642198518,0.4809510405749082,0.0037725042760372,0.0432655699551105,-0.344373345375061,-0.509493350982666,walking
1761225857430941700,0.7085702210944146,0.3677431790679693,0.2881874117940664,0.0409848392009735,-0.4220633506774902,-0.4787023663520813,walking
1761225857440954400,0.7280906949266791,0.4236930298268794,0.3634247313469648,0.056398507207632,-0.4674139618873596,-0.4446175694465637,walking
1761225857450967600,0.7149671555899083,0.5131868382692337,0.2610942376852035,0.084803782403469,-0.4785054922103882,-0.4016104340553283,walking
1761225857460980500,0.7123956246014684,0.6273761120289564,0.1407750828683376,0.1280292868614196,-0.4851725399494171,-0.3396558165550232,walking
1761225857470993400,0.7007515832327306,0.6985919209808111,0.047270285218954,0.186169296503067,-0.47915780544281,-0.2874301671981811,walking
1761225857481006300,0.6134043583650142,0.6577496229827403,-0.0941828430414199,0.2583624422550201,-0.4451760649681091,-0.2550719082355499,walking
1761225857491020500,0.4110983732024207,0.6260194367229938,-0.1805482903301715,0.3179312348365783,-0.4145678281784057,-0.2424794137477874,walking
1761225857501033500,0.2149252647716552,0.5426806437790394,-0.0319324308335781,0.3521561324596405,-0.3961507976055145,-0.2585343420505523,walking
1761225857511046400,0.0455735277710482,0.3429460069417953,0.2048158856242895,0.356039822101593,-0.3621496856212616,-0.29049813747406,walking
1761225857521059600,-0.0601159939950332,0.1664192272126674,0.3998509664684533,0.3321467638015747,-0.3123756945133209,-0.3268904387950897,walking
1761225857531072300,-0.0736223586369305,0.0612608166486024,0.5984101297855376,0.2735223174095154,-0.2575627863407135,-0.3667978942394256,walking
1761225857541085400,-0.0640661198602989,0.0208931504249572,0.8292460073292255,0.1907658874988556,-0.2120283097028732,-0.4062632918357849,walking
1761225857551098600,-0.0336599304796196,0.0008054711639881,1.096246838709712,0.079333372414112,-0.2021780759096145,-0.4275581836700439,walking
1761225857561111600,0.1268876099543646,0.0638099166095256,1.3285118722736835,-0.048287309706211,-0.2331488728523254,-0.4276056885719299,walking
1761225857571124500,0.2852516323368065,0.1633393813759088,1.402509420898557,-0.1708633005619049,-0.2596457302570343,-0.4002930819988251,walking
1761225857581138400,0.3909769743349403,0.3113081751406192,1.2479261774301529,-0.2778455018997192,-0.2597154676914215,-0.3471502363681793,walking
1761225857591151400,0.3923211189528927,0.5021925660461187,0.9753858321011066,-0.3678568601608276,-0.2525113523006439,-0.2693433463573456,walking
1761225857601164500,0.4144606161771342,0.7028174297213554,0.6824059253334999,-0.422863632440567,-0.2428969591856002,-0.1597541123628616,walking
1761225857611177500,0.4567265903027728,0.8567945239901542,0.1889478698849677,-0.4134427011013031,-0.1904068440198898,-0.0323066748678684,walking
1761225857621190100,0.4116063592571765,0.984639398136735,-0.4167781358718871,-0.3531708717346191,-0.1074112132191658,0.0795144811272621,walking
1761225857631203000,0.2214814449494704,0.9780793089687824,-0.8457061437427997,-0.2433234602212906,-0.0236808955669403,0.1559935361146927,walking
1761225857641216000,-0.039265513668023,0.8890642239540815,-1.0940244864851236,-0.0969408079981803,0.0683319494128227,0.1940744519233703,walking
1761225857651229200,-0.269286677295342,0.7733312278836965,-1.1372867051064968,0.0509985908865928,0.1416085511445999,0.2054400146007537,walking
1761225857661242000,-0.347142179990001,0.6187041452735662,-0.901547857952118,0.1803238838911056,0.1840483099222183,0.2094237059354782,walking
1761225857671256000,-0.2817213575851172,0.4028174150586128,-0.4441407745718955,0.2775692045688629,0.2022321075201034,0.2140011489391327,walking
1761225857681269200,-0.1753456071205437,0.2501747842639684,0.1120844104349613,0.3325459957122803,0.1944078356027603,0.2190644592046737,walking
1761225857691282000,-0.0424027157152071,0.128773094907403,0.6727081226617098,0.3455265164375305,0.1555073112249374,0.2204096168279647,walking
1761225857701295000,0.0390789050547406,-0.0224310275167226,1.1792998004496096,0.318676084280014,0.1030359044671058,0.2208847850561142,walking
1761225857711308000,0.0429206386420875,-0.1796387742698192,1.5632874273538588,0.2602740228176117,0.0770706161856651,0.220301017165184,walking
1761225857721321200,0.0642076472228393,-0.3195177850812673,1.7429361384958029,0.1855919957160949,0.0586705803871154,0.2176469266414642,walking
1761225857731334000,0.122142863112688,-0.4280184918105602,1.8419184907734396,0.098953790962696,0.0651428624987602,0.221584141254425,walking
1761225857741347000,0.0859897458441555,-0.4971417123973369,1.7297177604824303,0.0131145874038338,0.1124555468559265,0.2172648012638092,walking
1761225857751360300,-0.0002236526880413,-0.5666600697815418,1.6048410884916782,-0.0751609504222869,0.1450531631708145,0.1999169588088989,walking
1761225857761374000,-0.1256403863722458,-0.6075356855273246,1.5640081428438424,-0.1475191414356231,0.1404006779193878,0.1762036979198455,walking
1761225857771387100,-0.280802196913585,-0.6830430541932583,1.4610598095446825,-0.2107806801795959,0.1018189340829849,0.1384387463331222,walking
1761225857781400000,-0.4017029875433072,-0.7269003160983324,1.2774983088731764,-0.2466626167297363,0.0491912737488746,0.1039522662758827,walking
1761225857791413000,-0.5054310730433091,-0.6118985569119453,0.9037900839209556,-0.247062087059021,0.0370733588933944,0.0915406048297882,walking
1761225857801426200,-0.5259091398613527,-0.4091735060870647,0.3553934005826711,-0.2221279591321945,0.0437423288822174,0.0907641798257827,walking
1761225857811439000,-0.614956921569258,-0.2273790150880813,0.0444417837947607,-0.1952217817306518,0.038999505341053,0.0994684547185897,walking
1761225857821452000,-0.7329372581750154,-0.1143915183335542,-0.0812035344809293,-0.1791083663702011,0.0296525005251169,0.1083712875843048,walking
1761225857831465000,-0.8487318482395261,-0.1882978815436363,-0.0707709877938032,-0.1693798303604126,0.014721754938364,0.1107673346996307,walking
1761225857841479200,-0.9903941622711716,-0.3223059544950723,-0.0727940180540084,-0.1573264002799987,0.033950388431549,0.0943996310234069,walking
1761225857851492000,-1.2005335810057818,-0.4208353023082017,-0.083863693600893,-0.1470926702022552,0.0804949849843978,0.0583396293222904,walking
1761225857861505000,-1.3809766573958098,-0.4928513217270374,-0.0982867712289094,-0.1375620663166046,0.1510232836008072,0.0196802020072937,walking
1761225857871518200,-1.4082565862484275,-0.4996329446911811,0.0175268888622522,-0.1405304223299026,0.1916133314371109,-0.0133581757545471,walking
1761225857881531000,-1.3422023978434503,-0.4854407532095909,0.1470002409934997,-0.1388062238693237,0.2508434355258941,-0.0188141241669654,walking
1761225857891544000,-1.1828339659251272,-0.3374275357812643,0.1836655455678701,-0.132229283452034,0.3281054496765136,-0.0036703262012451,walking
1761225857901557000,-1.035277333157882,-0.2680027018994093,0.0818751501321792,-0.1082950830459594,0.4351472556591034,0.0156930051743984,walking
1761225857911570200,-0.9501360939018428,-0.274275206297636,-0.0808574975222349,-0.0609049312770366,0.5291115641593933,0.0451624803245067,walking
1761225857921583000,-0.9575467354845256,-0.2032014361649751,-0.2476286069124937,0.0176532939076423,0.5880443453788757,0.0704003721475601,walking
1761225857931597000,-0.9954073873233048,-0.2081938376247882,-0.318285612937808,0.1176544576883316,0.5869585275650024,0.0749061778187751,walking
1761225857941610000,-1.0503931422904134,-0.2941068649709225,-0.2808499085128307,0.2141811847686767,0.5362380146980286,0.0555249638855457,walking
1761225857951623000,-1.0827557812348008,-0.4012608332663774,-0.1856353843361139,0.3026157021522522,0.4938562214374542,0.0147762019187211,walking
1761225857961636000,-1.0376488845948129,-0.4878431381762027,-0.0967336965680122,0.3611913621425628,0.4839840531349182,-0.0219427719712257,walking
1761225857971649300,-0.9815410667952148,-0.4754103575825691,0.0131675246089696,0.3952952623367309,0.5126857161521912,-0.0433926731348037,walking
1761225857981662000,-0.7560563410211354,-0.4386760794252157,0.1684708990454673,0.3975447416305542,0.5600361824035645,-0.0369230806827545,walking
1761225857991675100,-0.4184351092986762,-0.3984095354884863,0.3396580713123083,0.367101103067398,0.6051090955734253,-0.0116648618131876,walking
1761225858001688000,-0.1162456583002582,-0.4622667983710765,0.5584434455782175,0.3020051121711731,0.6690497398376465,0.0241732690483331,walking
1761225858011701000,0.094877035850659,-0.621309943857789,0.7702326773464679,0.2139471620321273,0.7515462040901184,0.0658639892935752,walking
1761225858021715200,0.31008506308645,-0.769529497513175,0.9433996252536772,0.1087890639901161,0.806671142578125,0.1063087657094001,walking
1761225858031728000,0.507829329824075,-0.9272259045660496,1.1632833161503076,-0.0125280376523733,0.7986754775047302,0.1442265957593917,walking
1761225858041741000,0.6710150550082326,-1.137820373591781,1.309023327949643,-0.1228344440460205,0.7319818735122681,0.1659083515405655,walking
1761225858051754000,0.8164209394823759,-1.248129006525874,1.2827537451833486,-0.2247301787137985,0.5738920569419861,0.1876823604106903,walking
1761225858061767200,0.836525935204327,-1.1898171028107405,1.2041215224951505,-0.316128522157669,0.3461960554122925,0.2194586098194122,walking
1761225858071779800,0.7620328581474721,-0.9994067591577768,0.8861889607787131,-0.3703643381595611,0.083278402686119,0.2515614330768585,walking
1761225858081793000,0.5590223414447159,-0.7382832953780889,0.3303121508181095,-0.4017869532108307,-0.1616827249526977,0.2741481363773346,walking
1761225858091806200,0.2594205323193222,-0.4600666579782962,-0.425010542166233,-0.3961122930049896,-0.3085816502571106,0.2768768072128296,walking
1761225858101819100,-0.1241697840967215,-0.1498316650271415,-1.366570092511177,-0.375081717967987,-0.3105001747608185,0.2518787384033203,walking
1761225858111833000,-0.5425105113765224,0.1911754828065633,-2.173529449230432,-0.3318184018135071,-0.1974561959505081,0.2246391475200653,walking
1761225858121846000,-0.907764029053226,0.6693728407591581,-2.765288888955116,-0.2414672076702118,0.0256266929209232,0.1977880895137787,walking
1761225858131859000,-1.2050816727641969,1.0438882904410365,-3.1134470775872467,-0.1352827250957489,0.2921710312366485,0.1932647079229354,walking
1761225858141872000,-1.209298779002577,1.3623375695079565,-3.2058588193029163,0.0002503243740648,0.5559254884719849,0.2172156125307083,walking
1761225858151885000,-1.0766893208026886,1.667119557750225,-3.124578127932548,0.1751638054847717,0.7954193353652954,0.270521730184555,walking
1761225858161898200,-0.816004394570738,1.9286258833676573,-2.801342783632874,0.3785353302955627,0.9754608869552612,0.3386178612709045,walking
1761225858171911000,-0.5548872144013643,1.9899328772455451,-2.199135015130043,0.5533106327056885,1.0598485469818115,0.3945887386798858,walking
1761225858181924000,-0.3437816905809566,1.8014625617444515,-1.2681401134192942,0.6721175312995911,1.0402482748031616,0.4192977249622345,walking
1761225858191938000,-0.0948713002296164,1.5546639759153127,-0.1550093599259853,0.7269933223724365,0.9482174515724182,0.4386932551860809,walking
1761225858201951000,0.2043746811954304,1.3417606454253197,0.7768032879084348,0.72540682554245,0.855219841003418,0.4545033574104309,walking
1761225858211964200,0.4645360584773123,1.1255705483496188,1.4587491945147513,0.6648665070533752,0.7358577847480774,0.466628223657608,walking
1761225858221977000,0.701613972215727,0.8510124334573745,2.066402953463793,0.5703921914100647,0.5988328456878662,0.484555035829544,walking
1761225858231990000,1.01778032797724,0.5263432569622993,2.4840508579075333,0.4647251963615417,0.4341166317462921,0.5071375966072083,walking
1761225858242003000,1.1257030886881052,0.2425496962130069,2.766146967089176,0.3445777595043182,0.2062342017889022,0.5151249766349792,walking
1761225858252016000,1.0941568806931377,-0.0292681800603866,3.1187925302684305,0.1858371198177337,-0.0642681419849395,0.4955589473247528,walking
1761225858262029000,0.9584662614822388,-0.2861561982274055,3.271144069162011,0.0217303857207298,-0.3222121000289917,0.4545358717441559,walking
1761225858272042000,0.7731899197168648,-0.4595049324423074,3.021041765612364,-0.1368246376514434,-0.5029816031455994,0.4222168028354645,walking
1761225858282056200,0.4909233493391424,-0.3966249901592731,2.3779823467612267,-0.2770744860172272,-0.584873616695404,0.3841851949691772,walking
1761225858292068900,0.0918553864745423,-0.2485702716767787,1.630491078054905,-0.392079621553421,-0.5964415669441223,0.3361462950706482,walking
1761225858302082000,-0.30799521466773,-0.0633534050136804,0.9687509241312742,-0.4835863709449768,-0.5562179684638977,0.2800292372703552,walking
1761225858312095200,-0.5726884632255882,0.1006786348015069,0.3917489085555076,-0.5461937785148621,-0.4873515665531158,0.2171434909105301,walking
1761225858322108000,-0.6991416638180613,0.1981803931325673,-0.2185498119443654,-0.5698964595794678,-0.3897275924682617,0.1742439121007919,walking
1761225858332121000,-0.7293165103945881,0.3146621617436408,-0.8345558041751384,-0.5420166254043579,-0.2423618286848068,0.139662504196167,walking
1761225858342134000,-0.8659367386057972,0.4621119000703096,-1.3503694838166236,-0.4588887691497803,-0.0573154762387275,0.1035168245434761,walking
1761225858352147200,-0.9865607215881348,0.6131698920220137,-1.7251251719951628,-0.3448767066001892,0.1392370015382766,0.0621313042938709,walking
1761225858362159900,-1.1045599090248346,0.6438415091395377,-1.8109259711384773,-0.2053595930337906,0.2983641624450683,0.0068191275931894,walking
1761225858372174000,-1.174859260718897,0.5913929444998502,-1.6172727000415323,-0.065314345061779,0.3951639235019684,-0.0677089020609855,walking
1761225858382187000,-1.077200046803802,0.4505249226510524,-1.1681383549660445,0.0535676255822181,0.4205164909362793,-0.1508993208408355,walking
1761225858392200000,-0.8454851214032619,0.2978688478529453,-0.5734159737825393,0.1368467956781387,0.3892887830734253,-0.221588134765625,walking
1761225858402213000,-0.4817007994962856,0.2882674912929535,0.0708674339056015,0.1681257486343383,0.3040012717247009,-0.2452876716852188,walking
1761225858412226000,-0.0736627728457097,0.3520031736224889,0.7380570854067802,0.1581159979104995,0.1817603111267089,-0.2386675775051117,walking
1761225858422239000,0.285764404164534,0.3468418453365564,1.3146136953026055,0.1010210216045379,0.0430316887795925,-0.2066356539726257,walking
1761225858432252200,0.4618780913144349,0.277162159910798,1.7290549126595258,0.0110099092125892,-0.0946622639894485,-0.1744795888662338,walking
1761225858442265000,0.4992829622097313,0.1328998194485902,1.873831047862768,-0.0860665738582611,-0.2013748586177826,-0.1471424996852874,walking
1761225858452278000,0.4345407331861555,0.0826753605991601,1.733918719303608,-0.1759402602910995,-0.2555864155292511,-0.1274468302726745,walking
1761225858462292000,0.2618612400023266,0.0996563060164451,1.3922668438255783,-0.2510026097297668,-0.2535209059715271,-0.1139808446168899,walking
1761225858472305200,0.0464400632061995,0.1554249549895525,1.0011094714224338,-0.2934118509292602,-0.2216599136590957,-0.1087365448474884,walking
1761225858482318000,-0.0947841973348986,0.1624398021876812,0.6371902345567941,-0.319922924041748,-0.1927439123392105,-0.1057690531015396,walking
1761225858492331000,-0.1976044381418265,0.0879775586605072,0.3970271412193775,-0.3196097016334533,-0.1802707314491272,-0.1160198226571083,walking
1761225858502344200,-0.3023872385928407,-0.0271481191664934,0.1993278096020221,-0.3021129071712494,-0.1695848405361175,-0.1308600902557373,walking
1761225858512357000,-0.3989712975570931,-0.1445867501109838,0.016143325549364,-0.271801620721817,-0.1585787981748581,-0.1645506769418716,walking
1761225858522370000,-0.4564980787765234,-0.2478121467858552,-0.1174918224364519,-0.2259824573993683,-0.1478233635425567,-0.1945101618766784,walking
1761225858532383000,-0.4379119266523048,-0.255414438483119,-0.1675280652374029,-0.180254116654396,-0.1584632247686386,-0.2206632047891616,walking
1761225858542396200,-0.338966216590628,-0.2263274602085351,-0.0977069255143403,-0.13980133831501,-0.1884630620479583,-0.2200910300016403,walking
1761225858552410000,-0.1513023312347475,-0.1900707364350557,0.0591384176671504,-0.1144848018884658,-0.2431236505508422,-0.2004747092723846,walking
1761225858562423000,0.0502618043182883,-0.148680156904459,0.2471142276495695,-0.1036812365055084,-0.3328293263912201,-0.1698952615261078,walking
1761225858572436000,0.1663640629593283,-0.2082318315476179,0.4296247579634189,-0.1100051775574684,-0.4526944756507873,-0.1377415955066681,walking
1761225858582449000,0.1398630551904905,-0.3472743915349245,0.4577402608573436,-0.111585833132267,-0.5353053212165833,-0.1097382828593254,walking
1761225858592462000,0.065572359704785,-0.4169160830378532,0.2121335151612758,-0.1032429486513137,-0.5769675374031067,-0.0889642909169197,walking
1761225858602475300,-0.0702918168415781,-0.4308464087128639,-0.0549725301593542,-0.0782194882631301,-0.609866738319397,-0.0835576355457305,walking
1761225858612488000,-0.2128162367284297,-0.4670920265704393,-0.2961702272415161,-0.0293185282498598,-0.6532407999038696,-0.0836420580744743,walking
1761225858622501400,-0.3030327699547633,-0.4455120629251003,-0.534161821758747,0.0368337891995906,-0.680749773979187,-0.0872661918401718,walking
1761225858632514600,-0.3521507653996348,-0.4853618427544832,-0.7721890721112489,0.1101095974445343,-0.7066969275474548,-0.1064755767583847,walking
1761225858642528500,-0.430411159100756,-0.5444733724147081,-0.8545335933208466,0.1689459532499313,-0.7339280843734741,-0.1266388893127441,walking
1761225858652541400,-0.4924633453227579,-0.5817220298349857,-0.8510147715449333,0.2054834514856338,-0.7343270182609558,-0.1562907844781875,walking
1761225858662554600,-0.5072265416253358,-0.6888637231707573,-0.8330594281375407,0.2026736736297607,-0.7111237645149231,-0.1895041912794113,walking
1761225858672567300,-0.5615764829069375,-0.7424129425287246,-0.6178069041728973,0.1628950983285904,-0.6789301037788391,-0.2371657192707061,walking
1761225858682580500,-0.6165744397684931,-0.8407038054108619,-0.3667114979326725,0.0903949961066246,-0.6479360461235046,-0.2994779646396637,walking
1761225858692593700,-0.6488387329049408,-0.8750222545981406,-0.140296943962574,-0.0062473923899233,-0.6144217848777771,-0.3678354322910309,walking
1761225858702606300,-0.549720771548897,-0.8474100250512361,0.0765320355385541,-0.0998605340719223,-0.5677424073219299,-0.4171057641506195,walking
1761225858712619500,-0.393627817637287,-0.7212713703006506,0.1291641400516033,-0.1705485433340072,-0.5211296677589417,-0.4427573084831238,walking
1761225858722632400,-0.232706749449484,-0.574765050303936,-0.01913490858078,-0.2049530744552612,-0.4842425584793091,-0.4449087381362915,walking
1761225858732646400,-0.0930948286090046,-0.3817641056358814,-0.2273731698691845,-0.1896851807832718,-0.4542255401611328,-0.4426048398017883,walking
1761225858742659600,0.047078269778192,-0.2578378662377595,-0.431877505326271,-0.1475547701120376,-0.4400828182697296,-0.4380271434783935,walking
1761225858752672500,0.2014329286551102,-0.1610433793932199,-0.5250993943810462,-0.1059449985623359,-0.4486315846443176,-0.4221530854701996,walking
1761225858762685400,0.3943513826714828,-0.0868921015113592,-0.5195587113887071,-0.0598283112049102,-0.4560308456420898,-0.3836839497089386,walking
1761225858772698400,0.5911370700426399,-0.0887280847668647,-0.4722866726040839,-0.0211581476032733,-0.4728255271911621,-0.3319384455680847,walking
1761225858782711600,0.7810705168988555,-0.1544657545685768,-0.4022504288256168,0.0146809043362736,-0.5071417093276978,-0.2777007818222046,walking
1761225858792724500,0.90852368831411,-0.2395604512691497,-0.4439046277284622,0.0659230574965477,-0.5352609753608704,-0.2353062033653259,walking
1761225858802737400,0.898310556531325,-0.314393281674385,-0.5737199251651763,0.1144457384943962,-0.5722469091415405,-0.2090737372636795,walking
1761225858812750600,0.8026736422240733,-0.2787824545890092,-0.6162883163034916,0.1698461472988128,-0.624290943145752,-0.1925405710935592,walking
1761225858822763500,0.6456129757914691,-0.270509716284275,-0.6577718348145485,0.2065825760364532,-0.6608877778053284,-0.1909583359956741,walking
1761225858832777500,0.5235911817751825,-0.2908358804762363,-0.7008633730441332,0.2144942879676818,-0.6458707451820374,-0.203851506114006,walking
1761225858842790400,0.35892040566504,-0.2764946359127759,-0.7635106756150722,0.207389160990715,-0.5627813935279846,-0.2199515998363495,walking
1761225858852803600,0.1655024776939302,-0.2148942120462655,-0.8233224624991416,0.1969279944896698,-0.4274270534515381,-0.2383966445922851,walking
1761225858862816500,0.0283208162076771,-0.0863783067703247,-0.8898042286664247,0.1930820047855377,-0.2882357537746429,-0.2545036077499389,walking
1761225858872829400,-0.0480966530404984,0.0264630595117807,-0.900596256315708,0.2174659073352813,-0.1508675217628479,-0.2816803753376007,walking
1761225858882842600,-0.0901481441652402,0.1041226377755403,-0.9820984814822672,0.2550734281539917,0.004445532336831,-0.3181934952735901,walking
1761225858892855300,-0.1733911851171404,0.2061865894556045,-0.9614601826012134,0.2885442972183227,0.1576609164476394,-0.3608112633228302,walking
1761225858902868500,-0.1795874824739992,0.3333557562977075,-0.672793462857604,0.3049251735210418,0.264263391494751,-0.3909610509872436,walking
1761225858912881400,-0.0258592118671163,0.4412964910566807,-0.2429705519735813,0.2828267812728882,0.3306030035018921,-0.391379177570343,walking
1761225858922895400,0.1927905533203855,0.4682902964442968,0.1905640729099512,0.2581450939178467,0.3669628202915191,-0.3693809509277344,walking
1761225858932908500,0.4158221868539228,0.5579325734466314,0.5095610489875078,0.2319685965776443,0.3376403748989105,-0.3500506579875946,walking
1761225858942921500,0.6292189634166657,0.5913607957959175,0.7268599840879439,0.2039354294538498,0.3031066954135895,-0.3406232893466949,walking
1761225858952934400,0.6845953982017934,0.5966928044736385,0.7409206581443548,0.1806673854589462,0.337742418050766,-0.3070472180843353,walking
1761225858962947300,0.6985303269866854,0.7792606179326772,0.7068529688477516,0.16506427526474,0.3946752548217773,-0.2430295944213867,walking
1761225858972960500,0.8002455382943153,0.904554054030776,0.8991022183656692,0.0980833694338798,0.3426719605922699,-0.1523465514183044,walking
1761225858982973700,1.1023912597488612,0.7544254518836736,1.427086228272319,0.0170695465058088,0.2344140410423278,-0.0353703014552593,walking
1761225858992986400,1.2834887814596294,0.5800041200011968,1.651615699148178,-0.071383886039257,0.1221314296126365,0.0701987370848655,walking
1761225859002999600,1.1915087091594934,0.4036310695290565,1.636382474181056,-0.1459850817918777,0.0522581040859222,0.1479849070310592,walking
1761225859013013500,0.8914091065797954,0.3894008841246366,1.3933797735035418,-0.1963699609041214,0.0537137873470783,0.201690211892128,walking
1761225859023026400,0.4877162238609045,0.3845259715646505,0.9004963030725717,-0.1938849836587906,0.1492613852024078,0.2269114553928375,walking
1761225859033039600,0.1459708979457616,0.4653723631709814,0.279422506058216,-0.1739853024482727,0.2970133125782013,0.2282105535268783,walking
