timestamp,acc_x,acc_y,acc_z,gyr_x,gyr_y,gyr_z,activity
1761225809769314300,-0.1900008130040019,0.0138823948800563,-0.419952674254775,-0.1519685983657837,-0.0409305617213249,0.2102628797292709,walking
1761225809779327500,-0.4966700762975961,-0.0785217480510473,-0.30561843906641,-0.1305378079414367,0.0087684709578752,0.1869808584451675,walking
1761225809789340400,-0.4267370736978947,-0.1226625030726194,-0.1371709208965301,-0.0966584011912345,-0.0032743434421718,0.1755694895982742,walking
1761225809799353300,-0.2921982183380052,-0.178898769557476,-0.0359784913539886,-0.0577351041138172,-0.0212290436029434,0.1490021646022796,walking
1761225809809367300,-0.2550627572349273,-0.1396831959784031,0.0472597638249397,-0.0224602036178112,-0.0555907487869262,0.1262537091970443,walking
1761225809819380500,-0.2662988571235909,-0.0163905783087015,0.225033328744769,-0.0018262942321598,-0.1017256155610084,0.1192251443862915,walking
1761225809829393400,-0.2228245301214978,0.06581599573493,0.3595698094844818,-0.0009128300007432,-0.1458645910024643,0.1134266480803489,walking
1761225809839406600,-0.2190153470968827,-0.0177256263047456,0.4426473211437463,-0.0453953631222248,-0.1544902622699737,0.0972743555903434,walking
1761225809849420300,-0.4352880078895017,-0.1886263828456401,0.5211188003122806,-0.1013009771704673,-0.1219887882471084,0.084037110209465,walking
1761225809859433500,-0.6065095573499798,-0.2540396429985762,0.5577022718220949,-0.1495995074510574,-0.1205207780003547,0.0521842278540134,walking
1761225809869446400,-0.5930417711528018,-0.2386941898286342,0.593086888936162,-0.1707340776920318,-0.1780634373426437,0.0177570115774869,walking
1761225809879459300,-0.5874613041393458,-0.213595404407382,0.4256932637333869,-0.1551839560270309,-0.1780626475811004,-0.0119527112692594,walking
1761225809889473500,-0.672671151652187,-0.1542716933012008,-0.0308177475899457,-0.1225330606102943,-0.1154876798391342,-0.0338521488010883,walking
1761225809899486200,-0.8376816811107098,0.0061760582864284,-0.2571352709263563,-0.0954574421048164,-0.0838484838604927,-0.0585116147994995,walking
1761225809909499400,-0.9973394513644276,0.1108645132511854,-0.176990890109539,-0.0769324973225593,-0.1006604880094528,-0.0880359560251236,walking
1761225809919512600,-1.024978276657313,0.0785416217952966,-0.0655552989721298,-0.0578060336410999,-0.1191565245389938,-0.1158121228218078,walking
1761225809929526300,-0.9385366953924298,0.058283262142539,0.0095411508053541,-0.0493486337363719,-0.1273598670959472,-0.1403009444475174,walking
1761225809939539500,-0.9729976217903196,0.1000999581307172,0.0616600450992584,-0.0455965287983417,-0.1268562227487564,-0.1725435256958007,walking
1761225809949552400,-1.0005556369319557,0.1205436112225055,0.0876543180555105,-0.0588066056370735,-0.1085981279611587,-0.2017719894647598,walking
1761225809959565300,-1.025129667826742,0.147273797237873,0.1192874736815691,-0.0894769728183746,-0.0566254928708076,-0.220315083861351,walking
1761225809969579500,-0.967437357314676,0.1401835467159748,0.0619786095291376,-0.1184252724051475,0.0427580848336219,-0.2223428040742874,walking
1761225809979592400,-0.8772759518090635,0.1231646073758602,0.0792781193763017,-0.1606801152229309,0.1520809233188629,-0.2104111760854721,walking
1761225809989605400,-0.7847038318999111,0.0743786568969488,0.3246715145826339,-0.2224622517824173,0.1713347733020782,-0.1977068334817886,walking
1761225809999618300,-0.6953986778974532,-0.0524666848182678,0.6629203036189079,-0.2921035885810852,0.1281677931547165,-0.1895361244678497,walking
1761225810009632300,-0.6262631823509931,-0.2171878759413957,0.8496224404036998,-0.353533923625946,0.0683768913149833,-0.1916922181844711,walking
1761225810019645400,-0.6199618171844631,-0.3644850540548562,0.8583359082132578,-0.4088350832462311,0.0100233145058155,-0.2147921919822693,walking
1761225810029658400,-0.7034174414411187,-0.4286667265862226,0.6648416270703077,-0.4493779838085174,-0.0279773287475109,-0.2430573999881744,walking
1761225810039671300,-0.8236847930055111,-0.3954863415181636,0.3825567173182964,-0.475543737411499,-0.0069150063209235,-0.2558433711528778,walking
1761225810049685500,-0.837436693373695,-0.29666648632586,0.1209767419427633,-0.4930857121944427,0.0157242603600025,-0.2446197420358657,walking
1761225810059698400,-0.7226069297533482,-0.21085750387609,-0.0882347482919693,-0.4900347292423248,0.0458030849695205,-0.1964061111211776,walking
1761225810069711400,-0.5830699738452211,-0.1455856980204582,-0.3474737134993076,-0.4635541439056396,0.1006785854697227,-0.1178015768527984,walking
1761225810079724300,-0.4338834383212029,-0.1089390981465578,-0.5723299321115016,-0.4231073558330536,0.133941575884819,-0.0339704267680645,walking
1761225810089738500,-0.3289496302932501,-0.1497667830973863,-0.7024632094562053,-0.350978285074234,0.1637902855873108,0.0662720203399658,walking
1761225810099751400,-0.1978886436443775,-0.086241528648138,-0.7493383578777313,-0.2647421360015869,0.1513767391443252,0.1673072725534439,walking
1761225810109764400,-0.1735032671894878,-0.1106570079803466,-0.7052642383515835,-0.1846339553594589,0.1111307814717292,0.2683374881744385,walking
1761225810119777500,-0.1832644539536908,-0.1790606821209192,-0.5683329714298248,-0.1012852787971496,0.0451929084956646,0.3512970209121704,walking
1761225810129791500,-0.2699066358245909,-0.3862584944456815,-0.4311182113915681,-0.0281282495707273,-0.0154254287481307,0.4247163832187652,walking
1761225810139804400,-0.3726454910915345,-0.5841191541045904,-0.308913973480463,0.044532798230648,-0.0470458976924419,0.4701849818229675,walking
1761225810149817300,-0.5494986532308161,-0.7363298232227563,-0.2146206558018922,0.0935480073094368,-0.039881195873022,0.4891397655010223,walking
1761225810159830300,-0.7792280308373272,-0.8387725450873375,-0.1428226630479097,0.1374256163835525,-0.0015232786536216,0.4869189262390136,walking
1761225810169844500,-0.9549841915201396,-0.927097894272208,-0.0434592024981975,0.1562485694885254,0.054836668074131,0.4715841710567474,walking
1761225810179857400,-1.0986007083594798,-0.982388404339552,0.1019213283389806,0.1511115282773971,0.102894589304924,0.4274774193763733,walking
1761225810189870300,-1.2196437204714865,-1.0799369244217871,0.2702805837035179,0.1269335001707077,0.1457608342170715,0.3678926527500152,walking
1761225810199883500,-1.3163538169682023,-1.215104688802361,0.4207119681894778,0.0894335955381393,0.1974697113037109,0.3013882040977478,walking
1761225810209897500,-1.2998428271502256,-1.2763637518852948,0.5637549959897995,0.0489804446697235,0.2656908631324768,0.241901159286499,walking
1761225810219910400,-1.2491525043547154,-1.282217738610506,0.7184288403511047,0.0041532064788043,0.3079338073730469,0.1898916065692901,walking
1761225810229923600,-1.1327521304167807,-1.2750754656404255,0.9677847094476224,-0.0436803624033927,0.3047723770141601,0.1459145694971084,walking
1761225810239936300,-1.029300816031545,-1.2077993342250586,1.1697487127721309,-0.0906647220253944,0.2529837191104889,0.1071399748325347,walking
1761225810249950500,-0.9126907448656856,-1.1322972262561322,1.2221709739267823,-0.1001266688108444,0.2353831678628921,0.078448936343193,walking
1761225810259963400,-0.8436948769856244,-0.9158440943300724,0.9924486105829476,-0.0795739144086837,0.2308056056499481,0.063440665602684,walking
1761225810269976300,-0.7184343202438205,-0.7887555915087461,0.8460884210586548,-0.05853121727705,0.1859039068222046,0.0587228797376155,walking
1761225810279989500,-0.6113991925550625,-0.7103478252261877,0.8834078056275844,-0.051635131239891,0.1198571100831031,0.0393990240991115,walking
1761225810290003200,-0.6613876872241496,-0.6540881778657436,0.8594435771942138,-0.0680987909436225,0.0733380764722824,0.0033083977177739,walking
1761225810300016400,-0.7344473704770207,-0.5273164859086275,0.8066770326465368,-0.0981635227799415,0.0567634180188179,-0.0060029882006347,walking
1761225810310029600,-0.673394424425438,-0.2564700850158929,0.7131693123877048,-0.1421346962451934,0.0674687922000885,0.029812267050147,walking
1761225810320042500,-0.5645410318009555,-0.0741536159694194,0.6020142917573451,-0.1775914579629898,0.0902544781565666,0.0936212465167045,walking
1761225810330055400,-0.4992368580456823,0.0433978276997804,0.363987625926733,-0.1896643638610839,0.141787976026535,0.1606950908899307,walking
1761225810340069400,-0.5231301401346922,0.1139092877745628,0.0866132845699787,-0.1755741536617279,0.2222493141889572,0.2117738127708435,walking
1761225810350082300,-0.6397583314791322,0.151498136934638,-0.2040098299384117,-0.1415919512510299,0.3130833506584167,0.2422539591789245,walking
1761225810360095500,-0.7509153979361057,0.2229512617737054,-0.4610936629384756,-0.0785210728645324,0.3789525926113128,0.2657847702503204,walking
1761225810370108400,-0.7698878094315529,0.2900619734942913,-0.563565610897541,0.0043367929756641,0.4285238683223724,0.2980138063430786,walking
1761225810380122400,-0.6575582651291042,0.3097632837861776,-0.5789169092863797,0.0904035195708274,0.4441458284854889,0.3451484739780426,walking
1761225810390135300,-0.5292931197438389,0.2357294948041439,-0.4492664470225572,0.159130111336708,0.4223481118679046,0.3879731595516205,walking
1761225810400148500,-0.4046932554004713,-0.0036082536250352,-0.2389694996386766,0.2077237218618393,0.3690885305404663,0.4075113236904144,walking
1761225810410161400,-0.2913392268884927,-0.2918237224698066,-0.0615863953411579,0.2441901117563247,0.2804864943027496,0.4211222231388092,walking
1761225810420175400,-0.2171745050031691,-0.5078811330765486,0.0636573563963174,0.2563403248786926,0.1777481734752655,0.4272600710391998,walking
1761225810430188500,-0.1700311340995133,-0.6613122839003801,0.1414227331221103,0.2446980327367782,0.0612748302519321,0.4301871359348297,walking
1761225810440201500,-0.2210342491712421,-0.7340636318564414,0.2160509808659553,0.1964440047740936,-0.0671239718794822,0.4324017167091369,walking
1761225810450214400,-0.314309037457034,-0.7571528310209512,0.1799035626858472,0.1333465278148651,-0.1455862820148468,0.4228990077972412,walking
1761225810460228400,-0.4750325372461229,-0.7043132212370634,-0.1526589974075555,0.0822505578398704,-0.1091354116797447,0.4029613733291626,walking
1761225810470241300,-0.6674354429557919,-0.5711988822549581,-0.5710469065636397,0.0244863294064998,0.00754060363397,0.3709400594234466,walking
1761225810480254500,-0.8131360725928097,-0.404447062087059,-0.8555950850725174,-0.0144358295947313,0.1672781556844711,0.3515260219573974,walking
1761225810490267400,-0.831594908542931,-0.2287146476060152,-0.9974398429989814,-0.0225454214960336,0.2637066841125488,0.3326593935489654,walking
1761225810500281300,-0.6956857512105256,-0.1423123754382133,-0.9623258595198392,-0.016540091484785,0.3296669423580169,0.305986225605011,walking
1761225810510294500,-0.5214959630616008,-0.1601525680333375,-0.9166928201138972,0.0049044797196984,0.4084821343421936,0.2829362750053406,walking
1761225810520307200,-0.3042210846901871,-0.1151455515712499,-0.8817641300737857,0.035552479326725,0.4606324136257171,0.2714080214500427,walking
1761225810530320400,-0.1465901806215755,0.0079804773598909,-0.7059510515719651,0.0671969577670097,0.4851183295249939,0.2779753804206848,walking
1761225810540334300,0.044611733534187,0.1356879888623952,-0.5355144054114819,0.1014439314603805,0.5069385766983032,0.2866992056369781,walking
1761225810550347300,0.2198163978140801,0.2311012504816055,-0.3653945701152086,0.1327408850193023,0.5198408365249634,0.2969087064266205,walking
1761225810560360400,0.363035951225087,0.3226648509353399,-0.1764087063074111,0.1634570658206939,0.5166453123092651,0.3103960156440735,walking
1761225810570372900,0.4719218944123015,0.4113233775973319,0.0417459688395261,0.1868859678506851,0.4971051216125488,0.3288330733776092,walking
1761225810580386800,0.5902556840982288,0.4910036480337381,0.2729413273453712,0.2112674415111541,0.4422071576118469,0.3545137643814087,walking
1761225810590400000,0.7514125338032841,0.5533914228856563,0.4592267000228166,0.2387083917856216,0.3860304355621338,0.3875497579574585,walking
1761225810600413000,0.8677050634525716,0.5478244364082813,0.4762877249389886,0.2703832387924194,0.3652399480342865,0.4240041673183441,walking
1761225810610425900,0.9052750617817044,0.5515460872799158,0.4582867888242006,0.2865997552871704,0.3857451975345611,0.4495111107826233,walking
1761225810620440000,0.8459844492275267,0.5409072043657303,0.5675415287911891,0.2810871601104736,0.4164759814739227,0.4700675904750824,walking
1761225810630453000,0.8204206766430288,0.4316974725842475,0.7606962027162313,0.2675678730010986,0.4170685410499573,0.4839383959770202,walking
1761225810640466000,0.8579949127558618,0.3680032913088798,0.9184995772749184,0.2463314086198806,0.3958002626895904,0.4986401200294494,walking
1761225810650478800,0.8967661766335367,0.3035959933280944,1.053385017582774,0.2314613759517669,0.3574454188346863,0.5006142854690552,walking
1761225810660492800,0.9411449781946838,0.2425707390010356,1.1214409011989832,0.2204511612653732,0.3096676766872406,0.5028263926506042,walking
1761225810670506000,0.9840385096341372,0.181119952738285,1.1469126115858554,0.2113226354122162,0.2541460692882538,0.4972366690635681,walking
1761225810680519000,1.040201053295657,0.122103700146079,1.126152147629857,0.2057797312736511,0.2001103609800338,0.4875274896621704,walking
1761225810690532000,1.0634447123695163,0.0882405935108661,1.1015630652964117,0.1919898837804794,0.1116470843553543,0.4694834947586059,walking
1761225810700545800,1.0656870114035903,0.0262140531867742,1.1329542288601395,0.146072581410408,-0.0020981654524803,0.4443032443523407,walking
1761225810710559000,1.0222419835612178,-0.0915846432417631,1.103083991253376,0.097171351313591,-0.1042125448584556,0.4077289998531341,walking
1761225810720572000,0.9661292703907935,-0.1661211210489273,0.8918377803206443,0.0472958423197269,-0.1893624514341354,0.3703701496124267,walking
1761225810730584800,0.8676733531400561,-0.148545716869831,0.5837070661723613,0.0166676267981529,-0.2818585932254791,0.3238609731197357,walking
1761225810740599000,0.7529005804039538,-0.1225818390518426,0.1238964287817478,0.0064193294383585,-0.3240186274051666,0.2726505696773529,walking
1761225810750612000,0.5638524650149047,-0.020563480079174,-0.4588403310537338,0.0054717767052352,-0.2916513681411743,0.233990266919136,walking
1761225810760625000,0.3577819762196391,0.1230629005670547,-0.9333388344883918,0.0085320910438895,-0.1935999095439911,0.2043565064668655,walking
1761225810770638000,0.1721932257705368,0.1513391469806432,-1.3334592655479909,0.0214604064822196,-0.0381200350821018,0.1658450663089752,walking
1761225810780651800,0.048495041240938,0.1371732589840888,-1.5817513048052787,0.0329350121319294,0.1305050253868103,0.1135252863168716,walking
1761225810790665000,-0.0507799555740319,0.120624859765172,-1.5301660789966582,0.0317807979881763,0.2688578367233276,0.0509694963693618,walking
1761225810800678000,-0.0826007427266798,0.1113736318171024,-1.3000409800708292,0.0344435386359691,0.3626685738563537,-0.0031614955514669,walking
1761225810810690800,0.0155617445354349,0.1002186160743236,-1.0244932696193456,0.0474059432744979,0.4172830879688263,-0.0435544587671756,walking
1761225810820705000,0.2066335843044333,0.0983428853303194,-0.7640045966118574,0.0712776109576225,0.4310331642627716,-0.0723300650715828,walking
1761225810830717700,0.3839768132492899,0.1663987689465284,-0.4322796563863754,0.0880179703235626,0.3836704194545746,-0.0952345803380012,walking
1761225810840731000,0.5412403818428516,0.2165150912463664,-0.1132417637765407,0.1054329350590705,0.3210067451000213,-0.1100013256072998,walking
1761225810850744000,0.6526614329982549,0.2225543714106082,0.0717687666594982,0.1234633401036262,0.2946039140224457,-0.1221852824091911,walking
1761225810860757800,0.6765951932281256,0.2101929024875164,0.1545756446838379,0.1184836626052856,0.2852016389369964,-0.1304642409086227,walking
1761225810870771000,0.6546502687279134,0.2231312945157289,0.3129249626874923,0.0978031530976295,0.2668458223342895,-0.1182270124554634,walking
1761225810880784000,0.7138276301659643,0.2781464947730303,0.5043459446877241,0.074553295969963,0.2291426509618759,-0.0833180025219917,walking
1761225810890796800,0.8130532166149467,0.2968009263604879,0.6651204440116882,0.0376426838338375,0.1693621426820755,-0.0396813079714775,walking
1761225810900811000,0.8900542579047381,0.2624222714185714,0.8174515246391296,0.0095517197623848,0.0887364521622657,-0.0062523810192942,walking
1761225810910824000,0.9228829799909144,0.2091530380457639,0.8450158233910798,-0.0070064840838313,0.0109077040106058,0.0230980515480041,walking
1761225810920836900,0.8269572388049214,0.1919663409233093,0.777550891405344,-0.0144314328208565,-0.0624576359987258,0.0396987907588481,walking
1761225810930849800,0.6865496740747242,0.1883259385943412,0.6815221282362938,-0.008549309335649,-0.1196966916322708,0.0461867824196815,walking
1761225810940863000,0.5615576686086132,0.1887964787155389,0.4961316585719585,0.0129589280113577,-0.1484645903110504,0.0462695062160491,walking
1761225810950877000,0.4367802557412534,0.2106552593022584,0.2724246099948882,0.0367966145277023,-0.1614682674407959,0.0410252101719379,walking
1761225810960889900,0.3000039601854979,0.1809697306126356,0.1551350321322679,0.0568920373916626,-0.1630082428455352,0.020208666101098,walking
1761225810970903000,0.1611253768545575,0.0897457373768091,0.0786275465130806,0.062844730913639,-0.1288342922925949,-0.0217563603073358,walking
1761225810980916000,0.013562579208007,-0.0329699571877717,0.1107294886946678,0.0371614769101142,-0.0851680412888526,-0.0595910884439945,walking
1761225810990930000,-0.0374977139776339,-0.1002040030270814,0.287734991851449,-0.0034927453380078,-0.0901268422603607,-0.0795466899871826,walking
1761225811000942800,0.0312308219028636,-0.1035223337948322,0.4260843088775873,-0.0336324833333492,-0.126242995262146,-0.080705888569355,walking
1761225811010955800,0.1385403643525205,-0.1499205123543739,0.3553355329155921,-0.0303916819393634,-0.1523100137710571,-0.0904216319322586,walking
1761225811020969000,0.1581752400783821,-0.1286252108693122,0.1556628553986549,0.0009939931333065,-0.1779793798923492,-0.1120160669088363,walking
1761225811030983000,0.0686537262117722,-0.0634574499100446,0.0633680180609226,0.0387829169631004,-0.2360706478357315,-0.1343669146299362,walking
1761225811040995800,0.1405749571863561,0.0371036959916353,0.0586614478051662,0.0849020406603813,-0.3102964162826538,-0.1370663046836853,walking
1761225811051009000,0.3009957842344418,0.1142863043934106,0.0280249020010232,0.1356504261493683,-0.3758525252342224,-0.113905057311058,walking
1761225811061021700,0.4289449590057134,0.153180390933156,-0.0293862534821033,0.1862656325101852,-0.4219357967376709,-0.088274173438549,walking
1761225811071036000,0.468910401104018,0.2011088477998971,-0.0282972892016172,0.216841384768486,-0.4511384069919586,-0.0639129057526588,walking
1761225811081049000,0.3852972116654738,0.1667003822416067,0.0023649755656719,0.2242855429649353,-0.4594076573848724,-0.0538335554301738,walking
1761225811091061800,0.2695962547011673,0.027331659039855,0.0788549255281686,0.2107231318950653,-0.4606524109840393,-0.0538969375193119,walking
1761225811101075000,0.1822788587161339,-0.1609083548367023,0.2362824525117874,0.1698815822601318,-0.4898853898048401,-0.0761865153908729,walking
1761225811111089000,0.0868146888935938,-0.4305103086262941,0.45125674405694,0.1098153218626976,-0.5427019596099854,-0.1150233969092369,walking
1761225811121101800,0.0358447089064866,-0.6541857930213213,0.5689537336766719,0.0326703414320945,-0.5932655930519104,-0.1552028805017471,walking
1761225811131115000,-0.0278288314396515,-0.8003536748439073,0.5237696070820093,-0.0473067834973335,-0.642005443572998,-0.2016185820102691,walking
1761225811141128000,-0.138023811398819,-0.857816852775216,0.4470820887207984,-0.1171018108725547,-0.6939530372619629,-0.244758740067482,walking
1761225811151142000,-0.2763488707665353,-0.7968862909942865,0.3037801177233457,-0.1853578239679336,-0.7322971820831299,-0.3013091087341308,walking
1761225811161155000,-0.4412912303596735,-0.7577157256007194,0.06622633010149,-0.2440404593944549,-0.7413386106491089,-0.3578470945358276,walking
1761225811171167700,-0.5945628797728568,-0.6364975761175156,-0.2314537171810865,-0.2887352108955383,-0.7066096067428589,-0.4043980836868286,walking
1761225811181181000,-0.7305261053800582,-0.4899760585516691,-0.6224111830979585,-0.2970539033412933,-0.6377171874046326,-0.4485789835453033,walking
1761225811191195100,-0.8038819220352917,-0.2440279520720243,-0.9610632922381164,-0.2719756960868835,-0.5059332847595215,-0.491823136806488,walking
1761225811201207800,-0.888185833684355,-0.1181359655588865,-1.3163754442781208,-0.2336788773536682,-0.3293901979923248,-0.5272899866104126,walking
1761225811211221000,-0.8733400005996227,0.0431067357987165,-1.4539339031875134,-0.1817608177661895,-0.1871643513441085,-0.5454367399215698,walking
1761225811221234000,-0.8634729788407682,0.1507633929193019,-1.3598954370528458,-0.1248257979750633,-0.0526768639683723,-0.5600293278694153,walking
1761225811231248000,-0.7993954973362386,0.166602767086029,-1.1976274843007326,-0.0629094317555427,0.0478036701679229,-0.5789638757705688,walking
1761225811241261000,-0.6869121507115662,0.1443488497018814,-0.8983703969597816,-0.0084005333483219,0.0919950604438781,-0.5980574488639832,walking
1761225811251274000,-0.5428802214717492,0.167826171401143,-0.4653787929117679,0.0264778211712837,0.0614656470715999,-0.6072738766670227,walking
1761225811261287000,-0.3653438628412783,0.2064776813566684,0.0482055202424526,0.045844692736864,-0.0139215253293514,-0.603141725063324,walking
1761225811271300900,-0.1776623961629345,0.2309936984539032,0.3896797010660171,0.0527015328407287,-0.0984787568449974,-0.5896517038345337,walking
1761225811281313800,-0.0852086419364437,0.2590150933235883,0.5591898800313473,0.0511646419763565,-0.1633179634809494,-0.5620465278625488,walking
1761225811291327000,-0.0357370107483118,0.3614478783160448,0.6546557486206293,0.0440907552838325,-0.2062451988458633,-0.528109610080719,walking
1761225811301340000,0.043876660725288,0.5156950216978788,0.7332493928641081,0.0327231436967849,-0.2360088229179382,-0.4784842729568481,walking
1761225811311353900,0.082337397349067,0.5796183355540037,0.6832581582486629,0.0257517844438552,-0.2356423735618591,-0.4209040701389313,walking
1761225811321366800,0.1053401238065212,0.6181254686027765,0.4791057049691676,0.0389590896666049,-0.1890017241239547,-0.3626920878887176,walking
1761225811331380000,-0.0001558116162195,0.6475041233003139,0.2467190908521413,0.0607053972780704,-0.1129993721842765,-0.3186644315719604,walking
1761225811341393000,-0.1612127446107566,0.6091127255856991,0.1424777951329946,0.0942933559417724,-0.0643122568726539,-0.2996326684951782,walking
1761225811351405800,-0.3032845162261277,0.4946878895044326,0.2656067466735839,0.1175795048475265,-0.0699858516454696,-0.301627904176712,walking
1761225811361420000,-0.4102007302429526,0.2876391302615404,0.5297182863533496,0.1256744265556335,-0.1048444733023643,-0.3163953721523285,walking
1761225811371433000,-0.502772813619487,0.1100233862519264,0.7383189512133598,0.0951391533017158,-0.1502545475959777,-0.3482808470726013,walking
1761225811381446000,-0.6608938392926007,-0.0089285718649625,0.8992781594544649,0.0507199503481388,-0.1909048110246658,-0.4005161225795746,walking
1761225811391459000,-0.7687005724083632,-0.0575876810938119,1.007295466580987,-0.0203981697559356,-0.1870738565921783,-0.4517207145690918,walking
1761225811401472800,-0.8006070650830864,0.0068207859307527,0.9874433496415614,-0.1117148771882057,-0.1366629600524902,-0.4940547347068786,walking
1761225811411486000,-0.7748089722860604,0.1198234802544117,0.9112503367990256,-0.2186594307422638,-0.0603673979640007,-0.5088320970535278,walking
1761225811421499100,-0.6464530798774212,0.2672790637999773,0.8169692940801382,-0.3192839622497558,0.0284991860389709,-0.4810328185558319,walking
1761225811431511800,-0.4015574050601571,0.4870440967530012,0.7473889773756265,-0.4042382538318634,0.0772590041160583,-0.4046362936496734,walking
1761225811441526000,-0.0823813734881114,0.7195633973389863,0.7322305712103844,-0.456257551908493,0.073882833123207,-0.2784278988838196,walking
1761225811451538700,0.1773162861390039,0.8582967452466488,0.6205559106200933,-0.4588650465011596,0.025953397154808,-0.1379844695329666,walking
1761225811461551900,0.2686058188917115,0.8768366105437279,0.4997399121969938,-0.4284398257732391,-0.0618543736636638,-0.013656485825777,walking
1761225811471565000,0.1896053474130108,0.732719816032052,0.3771124804377556,-0.3664515614509582,-0.1648555845022201,0.0787392258644104,walking
1761225811481578800,0.0564043895933777,0.5508318015307188,0.1772118393838405,-0.2828564643859863,-0.2506566345691681,0.1416186690330505,walking
1761225811491592000,-0.0175193448766134,0.4167681989997625,-0.032009003201127,-0.1928349584341049,-0.2921228408813476,0.2125527709722519,walking
1761225811501604900,-0.0317890403075143,0.3485761217832565,-0.2146381914585828,-0.1089084222912788,-0.2989383339881897,0.284110963344574,walking
1761225811511617800,-0.0927374848050065,0.2438350598484277,-0.2376607551276683,-0.0451171919703483,-0.2817468047142029,0.3416261970996856,walking
1761225811521632000,-0.2573358715323731,0.0556067364096641,-0.1600742421001195,0.0002500214613974,-0.2374589741230011,0.3666236996650696,walking
1761225811531645000,-0.3983169983668252,-0.1952577836841344,0.0025683891832828,0.0146846212446689,-0.2050930559635162,0.3610462248325348,walking
1761225811541657900,-0.5404553324123844,-0.4764975682973861,0.2534492758899927,0.0129701131954789,-0.1911713033914566,0.3384222686290741,walking
1761225811551670800,-0.5618276446564122,-0.7037099946469069,0.4428127408385277,-0.003972384147346,-0.1894122809171676,0.3156301379203796,walking
1761225811561684700,-0.5400885814592242,-0.8775397903770208,0.46485272321105,-0.0166439358144998,-0.1772713959217071,0.2882939875125885,walking
1761225811571698000,-0.6252626270063221,-1.0157739565908908,0.3108300362348556,-0.0247857514768838,-0.1185907647013664,0.2433997392654419,walking
1761225811581711000,-0.766198964850977,-1.0870236678123473,0.1688432394891977,-0.0339059270918369,-0.0510939955711364,0.1762450784444809,walking
1761225811591724000,-0.8986816548660397,-1.0758961245983838,0.1710141537874936,-0.0553116202354431,-0.0204945411533117,0.0962312072515487,walking
1761225811601738000,-0.9329488122574984,-1.0455699599176644,0.3143558722734451,-0.0868392139673233,-0.0118524227291345,0.0359878242015838,walking
1761225811611751200,-0.8191764487355947,-0.9825281050711868,0.336635508620739,-0.1117200627923011,0.0183025505393743,0.0060701412148773,walking
1761225811621763800,-0.6729394471995532,-0.8352975624531507,0.2308832238167524,-0.1340668499469757,0.0536034628748893,0.003722961526364,walking
1761225811631777000,-0.6123892995709553,-0.6236071148842572,0.1503653335124254,-0.1456795632839203,0.0962385386228561,0.016220910474658,walking
1761225811641791200,-0.6071393796861171,-0.4436562059253454,0.0585737695217132,-0.1421315670013427,0.1571843773126602,0.0297872126102447,walking
1761225811651804000,-0.6265550049044192,-0.3428092288196087,-0.0364332493841648,-0.1192590072751045,0.2154740542173385,0.036242451518774,walking
1761225811661817000,-0.6834361451640725,-0.2774368851989507,-0.0406184261143207,-0.0924182012677192,0.2383576035499572,0.0429526567459106,walking
1761225811671830000,-0.727227356095612,-0.2372130113601684,-0.05042962603271,-0.0428645014762878,0.2552601397037506,0.043118305504322,walking
1761225811681843000,-0.7520511970330029,-0.2002420018374919,-0.0728629916369915,0.0041140215471386,0.2790701389312744,0.0397509895265102,walking
1761225811691857200,-0.7829812458910047,-0.1114700779289007,0.0602513473451137,0.03504104539752,0.2695858180522918,0.0397653691470623,walking
1761225811701870000,-0.8401536241821944,-0.0452075074702501,0.3857464532703161,0.0358276478946208,0.2153526842594146,0.0425209589302539,walking
1761225811711883000,-0.7387973823800683,0.0109089320272207,0.6862520793676375,0.0225659050047397,0.1484745889902115,0.0660257488489151,walking
1761225811721896000,-0.540712339380756,0.1011614498823881,0.7665455132663249,0.0155176967382431,0.1144033968448638,0.1176912859082222,walking
1761225811731910000,-0.3670498995741829,0.2339168924242257,0.6736842742174863,0.020994221791625,0.1223771646618843,0.1974135488271713,walking
1761225811741923000,-0.3251005171170458,0.3827081084877252,0.4763818329632282,0.0262592863291502,0.1652224957942962,0.2705356180667877,walking
1761225811751936000,-0.4017741896159946,0.4201245236903428,0.2998901245474815,0.0388701520860195,0.2206170558929443,0.330700159072876,walking
1761225811761949200,-0.5273582792237401,0.374153630632162,0.10192249738276,0.0662875324487686,0.3019890487194061,0.3922725915908813,walking
1761225811771963100,-0.61053884939868,0.2760328636199236,-0.1597328813165426,0.1097404658794403,0.3900515437126159,0.437724232673645,walking
1761225811781976000,-0.7281194826297461,0.1190250233530998,-0.2655909645825624,0.1620094627141952,0.4447515308856964,0.4529596269130707,walking
1761225811791989000,-0.8513149235352874,-0.0582236409097909,-0.2007353383123874,0.2227958440780639,0.4797289669513702,0.4425056576728821,walking
1761225811802002000,-0.8907538575414568,-0.2395709726631641,-0.1174497368603944,0.287485659122467,0.5139712691307068,0.4190204739570617,walking
1761225811812016000,-0.8662812411945313,-0.3956190279871225,-0.0090577512025833,0.3389147818088531,0.5514174699783325,0.3841671347618103,walking
1761225811822029000,-0.8254170236255973,-0.6191963127046823,0.1595364819616079,0.3674163520336151,0.5796364545822144,0.3493832945823669,walking
1761225811832042000,-0.6595102759797126,-0.8299608776003122,0.3817763805955648,0.3569818139076233,0.5950132608413696,0.3214203715324402,walking
1761225811842055200,-0.3907747662937268,-1.017056982138753,0.6148129830539226,0.3291320204734802,0.6045874953269958,0.316447764635086,walking
1761225811852069000,-0.0613606968265026,-1.1836153255611657,0.7793015344649553,0.2701746821403503,0.5901986956596375,0.323479026556015,walking
1761225811862082000,0.196284532915987,-1.3216934244304894,1.0294511842876672,0.1678196936845779,0.4997846782207489,0.3261094987392425,walking
1761225811872095200,0.3608265680799261,-1.5021025985509155,1.2735557087272404,0.0282407607883214,0.348959743976593,0.3171000182628631,walking
1761225811882108000,0.3877611540935933,-1.6157827537447214,1.3903537036806344,-0.1408990025520324,0.1654639244079589,0.3031882047653198,walking
1761225811892122000,0.2841994016038254,-1.571439169627428,1.2032312956571578,-0.3071734607219696,-0.0217696037143468,0.2921331524848938,walking
1761225811902135000,0.0765643303729593,-1.3636708639383317,0.6358183616816997,-0.4228085577487945,-0.1352836042642593,0.2829927206039428,walking
1761225811912148000,-0.2562261932574212,-1.0341203451424836,-0.2767062328368425,-0.4815800189971924,-0.1361976116895675,0.2577994763851166,walking
1761225811922161200,-0.6416157228488475,-0.6627969695001841,-1.2616530894875526,-0.4778539538383484,-0.0257080141454935,0.2114166915416717,walking
1761225811932174800,-1.0068743185594675,-0.2344657584786414,-2.096726195535064,-0.42703977227211,0.1619444489479065,0.1597375273704528,walking
1761225811942188000,-1.2376453141734003,0.1435328571438789,-2.6993600804954765,-0.3197576701641083,0.3877774178981781,0.133349061012268,walking
1761225811952201200,-1.1785982280515133,0.4825163901954889,-3.0684412301689385,-0.1629744619131088,0.6125918626785278,0.1518532335758209,walking
1761225811962214000,-0.9355579718425868,0.7769716302126646,-3.147297909262776,0.0356805622577667,0.7824435234069824,0.1990322470664978,walking
1761225811972227000,-0.7097848575811833,0.991799206763506,-2.9252853896439075,0.2617262005805969,0.8561859130859375,0.2466226667165756,walking
1761225811982241000,-0.5030414744930342,1.01516020860672,-2.510131055581569,0.4954415559768677,0.8418320417404175,0.2754226922988891,walking
1761225811992254000,-0.2898832559265196,0.9472831886887548,-1.8962252505004404,0.7027609348297119,0.7716225981712341,0.2999253571033478,walking
1761225812002267100,-0.13483117110366,0.8491612526327371,-1.1491232733726502,0.865013062953949,0.6646105647087097,0.3190970122814178,walking
1761225812012280000,0.0024609284871257,0.7190835048675537,-0.3481920909017324,0.9460639357566832,0.5423693060874939,0.3329994976520538,walking
1761225812022294000,0.1102569849452469,0.5459124653071165,0.402999785888195,0.9533503651618958,0.4186180830001831,0.334060788154602,walking
1761225812032307200,0.2155214770991355,0.3645376610249281,1.0092845945715905,0.9034799933433532,0.3183436691761017,0.3326410353183746,walking
1761225812042320100,0.3169590770417824,0.197213009405136,1.4825626163005827,0.8092004656791687,0.2226070016622543,0.3319917023181915,walking
1761225812052333000,0.4133013996720314,0.091396427193284,1.750631369173527,0.6911875605583191,0.1581116318702697,0.3266488909721374,walking
1761225812062347000,0.4329132781147957,0.0103436993598937,1.8076777829974888,0.5732214450836182,0.1282458305358886,0.3120284676551819,walking
1761225812072360000,0.4385872320979833,-0.0784820005625486,1.8112445355683564,0.4415204226970672,0.097490057349205,0.2843931317329407,walking
1761225812082373000,0.3814609945034608,-0.1884007573962211,1.8297417307674884,0.3003896176815033,0.0359055809676647,0.2394604682922363,walking
1761225812092386000,0.3466537388859316,-0.3072147683471441,1.8302058411478996,0.1570478975772857,-0.0339286290109157,0.1932168155908584,walking
1761225812102400000,0.346159635226056,-0.3310837197124958,1.6957278125971555,0.0211035255342721,-0.0900299400091171,0.1419193297624588,walking
1761225812112413000,0.2861885113281198,-0.3566267417699098,1.471063317164779,-0.1004047915339469,-0.1189510747790336,0.0913373827934265,walking
1761225812122426000,0.2135993499301373,-0.3225561298638582,1.1466723730891943,-0.1973969936370849,-0.1346568614244461,0.0406268462538719,walking
1761225812132439000,0.1424136621219106,-0.2070294700205326,0.7754723315656185,-0.2702389657497406,-0.1535844802856445,-0.0089553529396653,walking
1761225812142453000,0.0626615091928048,-0.0075555299460887,0.3703448859989643,-0.3026883900165558,-0.1407478749752044,-0.0560806728899478,walking
1761225812152466200,-0.0297139054007362,0.1998924577474594,-0.1097416467010974,-0.2888362109661102,-0.0883483216166496,-0.0965868160128593,walking
1761225812162478800,-0.1175757926591671,0.3314589827656746,-0.5943558859586715,-0.2306366264820099,0.0229222606867551,-0.1255516558885574,walking
1761225812172492000,-0.159904584621638,0.5239303506016731,-0.9862743058621882,-0.1407418847084045,0.1671854257583618,-0.1530471891164779,walking
1761225812182506000,-0.1672816161956638,0.6029337446898222,-1.1977800445139408,-0.0334542766213417,0.3078618049621582,-0.1690984219312667,walking
1761225812192519000,-0.0643573578918352,0.6798650086790323,-1.130508589273691,0.0732210427522659,0.4083990752696991,-0.1660099476575851,walking
1761225812202532000,0.1194984860837459,0.7478595174968242,-0.8380103285431861,0.1804232150316238,0.4471388459205627,-0.1478608548641204,walking
1761225812212545000,0.3177176037915051,0.7217775662571191,-0.3700613928824663,0.267479807138443,0.4153878390789032,-0.122530460357666,walking
1761225812222558000,0.4683548861131071,0.5893278286635876,0.1479588568925857,0.3255697190761566,0.337966650724411,-0.1060103550553321,walking
1761225812232572200,0.5916776066601276,0.3715940092772245,0.6177028592765331,0.3482364118099212,0.2520932853221893,-0.0967617332935333,walking
1761225812242584800,0.597154942092672,0.1028191539615392,0.99505499368906,0.335152268409729,0.1727268695831298,-0.1082883328199386,walking
1761225812252598000,0.5168969813661649,-0.1109738188445568,1.3641384814500808,0.2795742154121399,0.0939457789063453,-0.143805056810379,walking
1761225812262611000,0.3959995517373085,-0.2831272057950496,1.679050234040618,0.182940736413002,0.0095280352979898,-0.1918544322252273,walking
1761225812272625000,0.352590289328061,-0.3769090668201446,1.86963184260726,0.0661616623401641,-0.0461109913885593,-0.2372922301292419,walking
1761225812282638000,0.3581736424183472,-0.3826467336893081,1.8390788834333416,-0.0512510985136032,-0.0524928197264671,-0.2604502737522125,walking
1761225812292651000,0.4148712062720209,-0.2735305254101753,1.693342963287234,-0.1697806715965271,-0.0406116619706153,-0.2598761022090912,walking
1761225812302664000,0.4776985050523653,-0.1228232465922832,1.588711206945777,-0.2810340821743011,-0.0542122237384319,-0.2463944852352142,walking
1761225812312678100,0.5154428735677152,-0.0287573079288005,1.4360978022456168,-0.3634520173072815,-0.0801684558391571,-0.2229221761226654,walking
1761225812322691000,0.5081770107505843,0.0704185210943222,1.08090138553977,-0.3972838222980499,-0.0866692513227462,-0.1964945942163467,walking
1761225812332704000,0.4059238931739702,0.107157475426793,0.5610556739032269,-0.3834779858589172,-0.0484105460345745,-0.1784783154726028,walking
1761225812342717000,0.2669887025512755,0.201780463451147,0.0376847107499837,-0.3277617990970611,0.0053778318688273,-0.1688326448202133,walking
1761225812352731000,0.1487871974755078,0.2865601028531789,-0.2488099256515502,-0.2439004629850387,0.0311777368187904,-0.1529138535261154,walking
1761225812362744000,0.1439409630207344,0.2783791344851255,-0.3956991074860095,-0.1411151885986328,0.0344704128801822,-0.1335913836956024,walking
1761225812372757000,0.2355549784874543,0.2321627422332763,-0.3834317465871572,-0.035100869834423,0.0111195500940084,-0.1200460121035575,walking
1761225812382770200,0.3108606871014461,0.1333539929568767,-0.2517974170297384,0.052003763616085,-0.0615270994603633,-0.113591119647026,walking
1761225812392784100,0.3884908200750127,0.0107476039856672,-0.0395019893050193,0.1163667738437652,-0.1589271575212478,-0.10559843480587,walking
1761225812402797000,0.4725527031291276,-0.0891740749686956,0.1478513048648834,0.1615132093429565,-0.2708652913570404,-0.0941497161984443,walking
1761225812412810000,0.5316801244782283,-0.1628776090830564,0.2324690317034721,0.1929590255022049,-0.3655814230442047,-0.0725677236914634,walking
1761225812422823000,0.5982356865340843,-0.1792015518963337,0.1837555619388818,0.2145527899265289,-0.4116383194923401,-0.0470963791012764,walking
1761225812432837000,0.6055477996457368,-0.1749158374011516,0.087591774213314,0.2237944900989532,-0.4429320693016052,-0.0187036227434873,walking
1761225812442850000,0.6508532875977456,-0.1631365522801875,0.0535644169270992,0.2182176858186721,-0.4830867052078247,0.0239215418696403,walking
1761225812452863000,0.6707952747777104,-0.1278717621535062,0.1516606340199708,0.1977038830518722,-0.568308413028717,0.0672634243965148,walking
1761225812462876200,0.6416371309630572,-0.1470931799739599,0.3263128520488739,0.1674293577671051,-0.6792371273040771,0.1154346391558647,walking
1761225812472890000,0.596806311318092,-0.2473328388363122,0.3116992202848196,0.1551764160394668,-0.7434940934181213,0.160589337348938,walking
1761225812482903000,0.4799770079109817,-0.4123720098674297,-0.0149678520292043,0.1605691760778427,-0.7404388189315796,0.1867320835590362,walking
1761225812492916200,0.1930747222903184,-0.5961842704296112,-0.39362814643085,0.1722820252180099,-0.6982082724571228,0.1669661104679107,walking
1761225812502929000,-0.1798459872797131,-0.7346388013958931,-0.6088707335233688,0.1780631840229034,-0.6292741894721985,0.1086762621998786,walking
1761225812512942000,-0.5154023954268545,-0.8547773389488458,-0.6296218451291322,0.1664081215858459,-0.5499692559242249,0.0157516468316316,walking
1761225812522956000,-0.7532725555215031,-1.004441830715537,-0.490591560101509,0.1167183294892311,-0.4684578776359558,-0.0858713835477829,walking
1761225812532969000,-0.9022751493133604,-1.1396557723253964,-0.2372083351850509,0.0373428165912628,-0.4023742079734802,-0.1907594501972198,walking
1761225812542982100,-0.9490225066367536,-1.2299258258372543,0.0300175371229648,-0.0696779862046241,-0.3905262053012848,-0.3232474327087402,walking
1761225812552995000,-1.025451958583668,-1.245126902100444,0.3459785065054893,-0.1939661204814911,-0.4087845683097839,-0.4634791016578674,walking
1761225812563009000,-0.8957925092957914,-1.108179268565774,0.5312199230879545,-0.3204568326473236,-0.4599933326244354,-0.5549265742301941,walking
1761225812573022200,-0.6245030408106744,-0.7532248439222574,0.5202466936528682,-0.4254162609577179,-0.5113747715950012,-0.5722315311431885,walking
1761225812583035000,-0.3193353046538308,-0.3277946150392293,0.3227285638213157,-0.5080477595329285,-0.551125705242157,-0.5369167327880859,walking
1761225812593048000,-0.0903797792303375,0.0476531470566988,-0.0176344408899545,-0.5484734773635864,-0.5689166784286499,-0.4708935022354126,walking
1761225812603062000,-0.0573079325706697,0.330055545708537,-0.4073644108384847,-0.5488335490226746,-0.5647678971290588,-0.4076534509658813,walking
1761225812613075000,-0.1519931173773482,0.513462148079276,-0.8821779715716839,-0.5080954432487488,-0.5235336422920227,-0.3583562076091766,walking
1761225812623088000,-0.3027562180357053,0.664458765232563,-1.3341513394653797,-0.4213884770870209,-0.4496999979019165,-0.3092625141143799,walking
1761225812633101000,-0.4337950293853879,0.8626824129849672,-1.7189847695440053,-0.2911268770694732,-0.3563436865806579,-0.2550589442253113,walking
1761225812643115000,-0.53155938417539,0.9853811564147472,-1.9412036253899332,-0.1230130121111869,-0.2854969799518585,-0.2140485197305679,walking
1761225812653128200,-0.5715099209655076,1.016456093636155,-1.9246400286018848,0.0532909110188484,-0.243925854563713,-0.1920814365148544,walking
1761225812663141000,-0.5936329419789835,0.9614712885171176,-1.6823954528152942,0.2079425305128097,-0.2384736984968185,-0.1799987256526947,walking
1761225812673154000,-0.5286318062908947,0.8706932854831219,-1.1936778698921202,0.3256174921989441,-0.2916131019592285,-0.1693551391363144,walking
1761225812683168000,-0.4309278033860027,0.7803039895057677,-0.6037573360323906,0.3886012732982635,-0.3664812445640564,-0.1509647220373153,walking
1761225812693181000,-0.2708526114378124,0.6718418612211943,-0.088990535095334,0.4088676571846008,-0.4502890408039093,-0.1121579408645629,walking
1761225812703194000,-0.1254562619769945,0.6052443597197532,0.2988239566206931,0.3838616907596588,-0.5222069621086121,-0.0715479701757431,walking
1761225812713207000,-0.1041418174000456,0.5624012432932853,0.5180003760308027,0.3331638872623443,-0.5589489936828613,-0.0461201108992099,walking
1761225812723220200,-0.1983933052308857,0.5632698428213596,0.6186907012701034,0.2664661705493927,-0.5485653281211853,-0.0364496558904647,walking
1761225812733234000,-0.380340940964967,0.6295750833779573,0.645735944584012,0.1881298273801803,-0.4943628013134002,-0.03232441842556,walking
1761225812743247000,-0.5917503796353936,0.6657745240062475,0.6290010828822851,0.0964435338973999,-0.4071178436279297,-0.0537212304770946,walking
1761225812753260000,-0.7351140176922083,0.5946382100313902,0.6592991905122995,0.0029466073028743,-0.3256911635398865,-0.0824825689196586,walking
1761225812763273000,-0.8168732863597571,0.5266419476479292,0.7629641476482153,-0.0901724696159362,-0.2554788589477539,-0.1161607131361961,walking
1761225812773287200,-0.8219942826353013,0.4491431129038333,0.8055448137462139,-0.1686632931232452,-0.2069208920001983,-0.1450714617967605,walking
1761225812783299800,-0.7949568573016673,0.4622030854851007,0.8826520188242196,-0.2337069511413574,-0.1808905899524688,-0.1599715054035186,walking
1761225812793313000,-0.7519974210191518,0.5249065021574497,0.958695394062996,-0.2840172350406647,-0.1878688633441925,-0.163774237036705,walking
1761225812803326200,-0.626022286267206,0.6055272683143615,0.998994086703658,-0.3192715346813202,-0.2016957253217697,-0.1539298743009567,walking
1761225812813340000,-0.499898025368154,0.6170306591033935,0.8879577240169048,-0.3336299657821655,-0.1868763118982315,-0.132054403424263,walking
1761225812823353000,-0.371252137036994,0.6124480074882507,0.6403443146735429,-0.327331006526947,-0.1322856098413467,-0.0987807810306549,walking
1761225812833366000,-0.3561784865457564,0.6297586232513189,0.4433101689666509,-0.3010477423667907,-0.0877844616770744,-0.0656534507870674,walking
1761225812843379000,-0.3720408031966537,0.6083195293813943,0.4126081567108631,-0.2757446467876434,-0.0539290644228458,-0.0378549024462699,walking
1761225812853393200,-0.4167734596967697,0.5133768078833818,0.4426338771402835,-0.245589941740036,-0.0418625473976135,-0.0200740434229373,walking
1761225812863405800,-0.3676658760480582,0.3982248265713453,0.5264361959427595,-0.2073678225278854,-0.0645637214183807,0.0024069887585937,walking
1761225812873419000,-0.3107535369325429,0.3188274647295475,0.608064677837491,-0.1668614149093628,-0.0976945087313652,0.019308740273118,walking
1761225812883432200,-0.3184627961356193,0.2287052952557802,0.6308136852622032,-0.1327202767133712,-0.1083629131317138,0.0304015297442674,walking
1761225812893446000,-0.4009486255120486,0.1288490827530622,0.6433902582406997,-0.1131564304232597,-0.1071232110261917,0.0221369415521621,walking
1761225812903459000,-0.5100830270349979,-0.0157844291090965,0.7174959434151649,-0.1141970008611679,-0.1107785552740097,0.0038505271077156,walking
1761225812913472000,-0.5933333379779011,-0.1560544850647449,0.863971283751726,-0.1379875540733337,-0.1355661898851394,-0.0153980022296309,walking
1761225812923485000,-0.5876902175243943,-0.2677320682644843,0.97703944452703,-0.1791725754737854,-0.158064916729927,-0.0241916142404079,walking
1761225812933498000,-0.5393130670420825,-0.3302583748042583,0.9556406826674938,-0.22987861931324,-0.1589996814727783,-0.0241817608475685,walking
1761225812943512000,-0.5358885724861174,-0.3470727314829826,0.8256687333643435,-0.2877088785171509,-0.133614495396614,-0.007284624967724,walking
1761225812953525000,-0.5418056875754147,-0.2941156327992678,0.6913204686731099,-0.3349855840206146,-0.109975479543209,0.0113433869555592,walking
1761225812963538000,-0.6076587273851036,-0.2346434531331062,0.5318570519477128,-0.3635089695453644,-0.110107772052288,0.031162204220891,walking
1761225812973551000,-0.7004047425564378,-0.2845803272128105,0.2163397346794605,-0.3533213138580322,-0.1044501513242721,0.047773141413927,walking
1761225812983565000,-0.8386498685557394,-0.3257593098193407,-0.2015431475639343,-0.302856832742691,-0.0843975841999054,0.0507753677666187,walking
1761225812993578000,-1.0503564635418354,-0.2958563389867544,-0.5537409669756889,-0.2274193167686462,-0.0810281559824943,0.0294487699866294,walking
1761225813003591200,-1.2241471693705768,-0.3083715371668338,-0.7776449994295835,-0.1473698616027832,-0.0667041763663292,0.019665764644742,walking
1761225813013603800,-1.2459614532284438,-0.2404635375887155,-0.977540964308381,-0.0518691763281822,-0.0126188304275274,0.0355770885944366,walking
1761225813023618000,-1.2390113418295978,-0.151938281917572,-1.1244389139711857,0.0369290746748447,0.0822294726967811,0.0631121769547462,walking
1761225813033631000,-1.2595607933834194,-0.1638023227125406,-1.0627800379157066,0.1119308844208717,0.1636497527360916,0.0773345232009887,walking
1761225813043644000,-1.3170945523329078,-0.2922059997856617,-0.7551414911985397,0.1688032448291778,0.2189260423183441,0.0699063912034034,walking
1761225813053657000,-1.315599491469562,-0.4692436516463756,-0.3388637060642242,0.2084212303161621,0.2380475401878357,0.0584516003727912,walking
1761225813063671000,-1.2633780135840176,-0.6226075824528933,0.0425280591279268,0.2332839667797088,0.2268952876329422,0.0441195331513881,walking
1761225813073684000,-1.2126780461773277,-0.7378139243006706,0.4244973319470882,0.2310540974140167,0.1940417289733886,0.02144724316895,walking
1761225813083697200,-1.201785846089199,-0.8564081550210714,0.7274602880686521,0.2119639813899994,0.1574017405509948,-0.0104552051052451,walking
1761225813093709800,-1.191017126250267,-0.9562497544765473,0.9077373602420092,0.1730445474386215,0.1319837272167205,-0.0447921380400657,walking
1761225813103724000,-1.1269188211534171,-1.0080360558152195,0.9403636185586453,0.1382706016302108,0.1008272841572761,-0.0781484395265579,walking
1761225813113737200,-1.0370955615609885,-0.9577379472076892,0.863715847685933,0.1161972433328628,0.0987558811902999,-0.0990167036652565,walking
1761225813123750000,-0.9980005456216632,-0.806644883942604,0.6176824010103941,0.1165482476353645,0.1403937339782714,-0.1160388886928558,walking
1761225813133763000,-1.0211086686823516,-0.5945137068688869,0.3259615543931722,0.1218284964561462,0.1857652068138122,-0.1235945373773574,walking
1761225813143776000,-1.0129111145056784,-0.3447866663724184,0.1673603074550628,0.1448898911476135,0.2302089631557464,-0.1267391443252563,walking
1761225813153790000,-0.8733483300365507,-0.2000286513477563,-0.0150151983022689,0.1762057244777679,0.2822663187980652,-0.1180077046155929,walking
1761225813163803100,-0.6957379928544163,-0.1006675288856029,-0.2350707386344671,0.2279735952615738,0.3753201961517334,-0.0839856564998626,walking
1761225813173816000,-0.5408054975569248,-0.005341361027956,-0.4651742102503776,0.2881466746330261,0.496166467666626,-0.0442417077720165,walking
1761225813183829000,-0.3648080389315262,0.0621089579105377,-0.5138531932234763,0.3523547649383545,0.6111345291137695,-0.0058829290792346,walking
1761225813193843200,-0.2809123792897909,-0.0092301851600408,-0.3882850318372249,0.4068776667118072,0.6953405141830444,0.0120388139039278,walking
1761225813203856000,-0.1013616120969876,-0.1655249087214469,-0.0351484702706337,0.4362901747226715,0.724365234375,0.0279029533267021,walking
1761225813213869000,0.1978987997122109,-0.374200392383337,0.4590986897289753,0.4243605434894562,0.7047105431556702,0.0453346744179725,walking
1761225813223882000,0.5908768847364932,-0.6269114171266555,1.034416697740555,0.3575068414211273,0.5982997417449951,0.0766780525445938,walking
1761225813233896000,0.966637804434821,-0.8394751403987407,1.64213767670691,0.230962723493576,0.3688340783119201,0.1270171254873275,walking
1761225813243909000,1.2601431233160196,-0.9707190093338488,2.0919272708207366,0.0610098168253898,0.0595655813813209,0.1791174113750457,walking
1761225813253922000,1.3889891373291612,-0.984980758920312,2.181710417598486,-0.1283217519521713,-0.2534972429275512,0.2357431501150131,walking
1761225813263935000,1.292116470681876,-0.847609931537509,1.752878271317482,-0.3153428733348846,-0.4622211754322052,0.2891967892646789,walking
1761225813273949200,0.9229628402940928,-0.5852490349173546,0.7879115419000386,-0.4581711292266845,-0.5160199403762817,0.3266797065734863,walking
1761225813283962000,0.3570823765829205,-0.2203326037079095,-0.4211784166574477,-0.5274363160133362,-0.3917787671089172,0.3373523354530334,walking
1761225813293975000,-0.1785946720443665,0.1987713447630405,-1.5773405026257037,-0.5334388017654419,-0.1479485481977462,0.312958300113678,walking
1761225813303988000,-0.5936759043378755,0.4803402152001857,-2.4715929428726438,-0.4673437178134918,0.1637351661920547,0.2868947982788086,walking
1761225813314001200,-0.7574332553975284,0.7194131752133369,-3.101926735663414,-0.3347102999687195,0.5272462964057922,0.281438797712326,walking
1761225813324015000,-0.6949956500545144,0.9139876528084278,-3.373966145732999,-0.1460497379302978,0.8297525644302368,0.3010865151882171,walking
1761225813334028000,-0.4378168322473764,1.054450016465783,-3.081521076494455,0.0707331746816635,0.9877909421920776,0.3244938552379608,walking
1761225813344041200,-0.0405019783941097,1.002250458151102,-2.330803246957064,0.2760697901248932,0.9991424083709716,0.3400392532348633,walking
1761225813354054000,0.3466838417632505,0.8065303176522255,-1.4178975441664456,0.4563932418823242,0.8868065476417542,0.3519744873046875,walking
1761225813364068000,0.713109106633067,0.6943857014626265,-0.5074859962791204,0.589810848236084,0.7403141260147095,0.36959969997406,walking
1761225813374081000,0.9827386790819466,0.6363292338132858,0.2608025612622499,0.6664898991584778,0.5913363695144653,0.3910325467586517,walking
1761225813384094000,1.177579187202081,0.5416530542969703,0.9399427627980708,0.6891939640045166,0.4446699619293213,0.415651261806488,walking
1761225813394107100,1.3691719455726443,0.4210936609834432,1.501993292957544,0.6440848112106323,0.317148208618164,0.4528375267982483,walking
1761225813404120800,1.5375198027603327,0.3186573688596487,1.9049901562362908,0.5479465126991272,0.2261111587285995,0.4862243831157684,walking
1761225813414134000,1.454191677340865,0.1857254007071256,2.1896534855574368,0.3930325806140899,0.1693954169750213,0.4881485402584076,walking
1761225813424147200,1.1826951419763263,-0.1186328091651201,2.4591981562018392,0.1896674633026123,0.1057610884308815,0.4457630217075348,walking
1761225813434159900,0.8610434866715222,-0.5220639722079038,2.6564497440516948,-0.0467472150921821,0.0202248785644769,0.3651576638221741,walking
1761225813444174000,0.6666790716305375,-0.8420710021108389,2.630122878140211,-0.2802563905715942,-0.0809115916490554,0.2749329507350921,walking
1761225813454187000,0.5333133517032489,-0.9441752858012914,2.283205629479885,-0.488022893667221,-0.1674704551696777,0.188693955540657,walking
1761225813464200000,0.3720857383169234,-0.8361118014454841,1.6288263597130774,-0.6269426345825195,-0.1821282058954239,0.105716273188591,walking
1761225813474213000,0.2439019328058697,-0.6021563305765391,0.7088952883303165,-0.6927275061607361,-0.1195915937423706,0.0406025201082229,walking
1761225813484226000,0.0391203330436721,-0.1931172645241022,-0.2765238620072603,-0.6715929508209229,0.0414503179490566,-0.0089532723650336,walking
1761225813494240000,-0.1042733348252251,0.2540618548303842,-1.1743699428319931,-0.5831730365753174,0.2779653966426849,-0.0467219538986682,walking
1761225813504253200,-0.1335923317573964,0.5860591822564601,-1.7022107448756694,-0.447102814912796,0.455007255077362,-0.0798061862587928,walking
1761225813514266000,-0.0773641755137592,0.7373615043580531,-1.7846119647085663,-0.2846033573150635,0.5574068427085876,-0.0665947720408439,walking
1761225813524279000,0.2480068656403571,0.8485136023789643,-1.6995324655771251,-0.1061683148145675,0.6116791367530823,-0.0096827279776334,walking
1761225813534293000,0.5288935259670019,0.8979092091888189,-1.5379332058668136,0.0737005248665809,0.6290573477745056,0.0398118570446968,walking
1761225813544306000,0.6326881008319556,0.818403710797429,-1.1511685154646634,0.2246929109096527,0.5911408066749573,0.0688476935029029,walking
1761225813554319000,0.6375517613455652,0.6899222923129796,-0.6098579909950494,0.3247228264808655,0.5237425565719604,0.0829816237092018,walking
1761225813564332000,0.6181503838483244,0.5133230318695307,-0.0281646027326583,0.3630256056785583,0.4525395035743713,0.0881161391735076,walking
1761225813574345500,0.6246753286376595,0.2955985648334026,0.5199216994822025,0.3452098369598388,0.382404088973999,0.093841403722763,walking
1761225813584358700,0.6158909875489771,0.0831225198447704,0.9906003523677588,0.2837879061698913,0.3160688877105713,0.0913144424557685,walking
1761225813594371800,0.6238960878934711,-0.0463163454949855,1.1835726554632189,0.2043002992868423,0.2971982657909393,0.0866166278719902,walking
1761225813604384800,0.6285787658169866,-0.0183189160227775,1.2537550297141071,0.1133967638015747,0.2806202173233032,0.0889063104987144,walking
1761225813614398700,0.5747790788292885,0.0577478400915861,1.2806933055222034,0.0194878466427326,0.2498825341463089,0.1025614067912101,walking
1761225813624411600,0.5460732818920165,0.1717161645770072,1.2884575097829103,-0.0516650639474391,0.2055803090333938,0.1293898075819015,walking
1761225813634424600,0.5269196320781484,0.2076157454758882,1.1666554229319095,-0.0899733081459999,0.1434623450040817,0.1616252362728119,walking
1761225813644437800,0.475801256596297,0.1472463247090578,0.9240689018398522,-0.0827604010701179,0.0817670226097107,0.1824828535318374,walking
1761225813654450700,0.3377018226779997,0.0918704744458198,0.5333832386016846,-0.0380914658308029,0.0326796360313892,0.1892701834440231,walking
1761225813664464600,0.0865152127566747,0.1065899046719074,0.1510018778502941,0.0322140306234359,-0.0091703329235315,0.1697572171688079,walking
1761225813674477800,-0.1650630998959764,0.0981190134465694,0.0124719435602426,0.084409050643444,-0.0465672388672828,0.1273375898599624,walking
1761225813684490800,-0.4019290148515254,-0.0060544777333736,0.0425040937304496,0.1134120821952819,-0.0980941504240036,0.0657883733510971,walking
1761225813694503700,-0.5068688142288476,-0.213127202373743,0.238716986182332,0.1053733304142952,-0.1861683428287506,-0.005962248891592,walking
1761225813704517600,-0.4358417693147435,-0.3817459854573011,0.2468850950688123,0.0935876369476318,-0.2469380050897598,-0.0534570142626762,walking
1761225813714530800,-0.3548586361188441,-0.356279535767436,0.0185322665125131,0.0844777598977088,-0.2673751413822174,-0.0863145664334297,walking
1761225813724543700,-0.3311477613920345,-0.2203004550039768,-0.170944595682621,0.0601624026894569,-0.2631205916404724,-0.1095234379172325,walking
1761225813734556700,-0.3001408113729208,-0.0950982043206691,-0.2461971128046512,0.0309155657887458,-0.2599785923957824,-0.1268318593502044,walking
1761225813744570600,-0.2582756913994439,-0.0155009359925985,-0.2968687308996915,-0.0047875097952783,-0.2445248961448669,-0.1281981915235519,walking
1761225813754583600,-0.18645747784134,0.0120119248330593,-0.3441676576912403,-0.0271655190736055,-0.2465393096208572,-0.1200835406780242,walking
1761225813764596700,-0.1400016508104279,0.0644482145130634,-0.3767167591184377,-0.0318245328962802,-0.2898640036582947,-0.1037472635507583,walking
1761225813774610000,-0.1760735560689121,0.104731125062704,-0.3774333829551935,-0.0157622098922729,-0.3526088893413543,-0.0855067372322082,walking
1761225813784622600,-0.2469325509397313,0.0973228946328163,-0.502807483074069,0.0337741486728191,-0.4063824713230133,-0.073273092508316,walking
1761225813794636800,-0.3527617369048297,0.1097322943508625,-0.6744722097247838,0.1095796972513198,-0.4337421655654907,-0.067920409142971,walking
1761225813804649500,-0.4565872914299368,0.0768576142311096,-0.7362035664945841,0.1810518205165863,-0.4450656473636627,-0.072674922645092,walking
1761225813814662700,-0.5421899011200294,0.0177618666619062,-0.6460346352696419,0.2441751360893249,-0.4445798695087433,-0.0906336829066276,walking
1761225813824675800,-0.6232747411247342,-0.0964104559630155,-0.3334808439821005,0.2651958465576172,-0.4442838132381439,-0.1288868486881256,walking
1761225813834689500,-0.681252955906093,-0.3416600587844848,0.0781412243008613,0.2422761470079422,-0.4576808214187622,-0.1852960735559463,walking
1761225813844702700,-0.7373384888086467,-0.6284919643163681,0.3623503801137209,0.1887438148260116,-0.4532135426998138,-0.2469657212495803,walking
1761225813854715600,-0.7670205103669315,-0.8055535815745591,0.7261708327800035,0.1079400405287742,-0.5132156610488892,-0.3110767900943756,walking
1761225813864728600,-0.6689988928802311,-0.913875424605608,1.1066320391237736,0.0131368562579154,-0.6027714014053345,-0.3747330605983734,walking
1761225813874742800,-0.5369262449707836,-1.017442766585946,1.21133978331089,-0.0927562862634658,-0.6490129232406616,-0.4387602508068084,walking
1761225813884755700,-0.3822987970344722,-1.0920762750267985,1.0945078860878945,-0.2185536623001098,-0.6940619945526123,-0.4796726405620575,walking
1761225813894768600,-0.2470559215910732,-0.9803045838028192,1.0734522385776042,-0.3499385714530945,-0.7898140549659729,-0.4899468421936035,walking
1761225813904781600,-0.1431687730718404,-0.8307488131076097,1.0191209289312362,-0.4794960618019104,-0.890377402305603,-0.4794076085090637,walking
1761225813914795500,-0.0788358189688995,-0.7481938640177249,0.7968862909942865,-0.5913355350494385,-0.9896193146705629,-0.4714825749397278,walking
1761225813924808700,-0.136259066748619,-0.6801759743243455,0.3663677990615367,-0.6684390902519226,-1.0760812759399414,-0.4706245362758636,walking
1761225813934821600,-0.3462244075579568,-0.5241980616271495,-0.1587999843806028,-0.7015629410743713,-1.123053789138794,-0.4808313548564911,walking
1761225813944834800,-0.6642611968338489,-0.3041442748606204,-0.7843103025376796,-0.6882743239402771,-1.1313223838806152,-0.4989176094532013,walking
1761225813954847700,-0.9623990708865224,-0.0982253964304924,-1.3340584004849194,-0.6208572387695312,-1.1422793865203855,-0.5413140654563904,walking
1761225813964861700,-1.1628101456806064,-0.0008329436928033,-1.8757751676678656,-0.4857829213142395,-1.0804297924041748,-0.5876370668411255,walking
1761225813974874600,-1.2626514528751374,0.0936965208292007,-2.4848995836913583,-0.2994857728481293,-0.9297356605529784,-0.6206275224685669,walking
1761225813984887600,-1.258890054515004,0.3098258276283741,-2.860349683874845,-0.0953540131449699,-0.7414999008178711,-0.6429201364517212,walking
1761225813994900700,-1.2003476299796252,0.5325806900471448,-2.8568934059411286,0.0971374064683914,-0.5380644798278809,-0.6483780145645142,walking
1761225814004914700,-1.1545977592609822,0.7807523177951574,-2.539244921863079,0.2521775364875793,-0.342052012681961,-0.6491689682006836,walking
1761225814014927600,-1.0042188356146216,0.8079249868810177,-1.9581302102714773,0.3563039302825928,-0.2274654805660247,-0.6349538564682007,walking
1761225814024940800,-0.7308194623034447,0.6905208427280187,-1.0922019472330808,0.3982665538787842,-0.172021672129631,-0.6202505230903625,walking
1761225814034953500,-0.4016990054879337,0.5159925433397293,-0.2364753447353839,0.3879564106464386,-0.1773213595151901,-0.6110447645187378,walking
1761225814044966700,-0.1557861895173788,0.339846871882677,0.5417407325804233,0.3282241523265838,-0.2409343719482422,-0.6091511845588684,walking
1761225814054980900,0.0049728930417448,0.211502816042304,1.122791731286049,0.2300619035959243,-0.321937084197998,-0.601041853427887,walking
1761225814064993500,0.1346485628120601,0.1632914505809545,1.351566000124812,0.1269759535789489,-0.3843427300453186,-0.5781890749931335,walking
1761225814075006700,0.2068753754373639,0.2504892570406198,1.3333359314292668,0.0340593159198761,-0.3997563123703003,-0.5518970489501953,walking
1761225814085019600,0.1836901685524731,0.3403489761859178,1.238421851503849,-0.060955137014389,-0.3903683125972748,-0.5395861268043518,walking
1761225814095033600,0.0972584510944783,0.3722381523996591,1.1086088921546935,-0.1599592119455337,-0.3806102275848388,-0.5281087160110474,walking
1761225814105046800,0.0266994255509227,0.3979951094686985,0.9248767110913992,-0.2351770401000976,-0.354843407869339,-0.5188583135604858,walking
1761225814115059700,-0.0097491675328463,0.4552823463112115,0.4727653960317373,-0.254687637090683,-0.2702736556529999,-0.4916571080684662,walking
1761225814125072600,-0.0498179969403892,0.6480196716070175,-0.0415244350433349,-0.237277552485466,-0.17054283618927,-0.4608936309814453,walking
1761225814135086800,-0.0344144569076597,0.8244359766989946,-0.3137883015185594,-0.1936350017786026,-0.1111460849642753,-0.4236882030963897,walking
1761225814145099500,0.0490817185550928,0.8942588699877262,-0.4358972623616456,-0.1296852380037307,-0.0605703704059124,-0.3679836988449096,walking
1761225814155112700,0.2352025483205914,0.8965613017112016,-0.486608043423295,-0.0515952333807945,-0.0235790610313415,-0.2930745780467987,walking
1761225814165125600,0.453654306717962,0.906342691013217,-0.4201917437076568,0.0341533087193965,-0.0015148865059018,-0.2138685882091522,walking
1761225814175139600,0.5688383636686951,0.8965835135430097,-0.2846270889639854,0.1130878031253814,0.0113338008522987,-0.1311129927635193,walking
1761225814185152800,0.561106308111921,0.8283154484808445,0.0203495450675487,0.1785200089216232,-0.0006455210968852,-0.0625823736190795,walking
1761225814195165700,0.5685189224559813,0.6897364143520593,0.3931137671679258,0.2193744927644729,-0.0251346174627542,-0.0006614782614633,walking
1761225814205178600,0.6117083681020885,0.509422517299652,0.7177011105984449,0.2455030977725982,-0.0625465512275695,0.0483276098966598,walking
1761225814215191600,0.5976725362259894,0.3606318857580423,0.9850526551127432,0.2537631690502167,-0.1149365231394767,0.0810000672936439,walking
1761225814225205800,0.5026873638257384,0.1976537389099597,1.2100164257526398,0.2323931157588958,-0.1576168239116668,0.1046594157814979,walking
1761225814235218700,0.3781323980700224,0.0497083260208368,1.356454356688261,0.1954561322927475,-0.1808654069900512,0.1142696961760521,walking
1761225814245231600,0.3136816262736916,-0.0998620577216148,1.3980553640991449,0.1468842774629593,-0.2011289000511169,0.1207019984722137,walking
1761225814255244800,0.2039700093846768,-0.2338876663297414,1.327285545349121,0.1038252189755439,-0.188344657421112,0.121022380888462,walking
1761225814265258800,0.0544550090912729,-0.3074228581398725,1.1076672273904085,0.0641721114516258,-0.115232415497303,0.099522590637207,walking
1761225814275271700,-0.1478643835421651,-0.3638315585821867,0.9627455462366342,0.0023249944206327,-0.0494491420686244,0.0681702569127082,walking
1761225814285284900,-0.2897360294755548,-0.3998240784615278,1.020644777497649,-0.065196543931961,-0.0229080505669116,0.0331116504967212,walking
1761225814295297500,-0.3042857291579246,-0.3893681508988141,1.029690253740549,-0.1352467387914657,-0.0113938730210065,0.0128902681171894,walking
1761225814305310700,-0.2629775672137737,-0.4092150071412325,0.8610685480475425,-0.1774173080921173,0.0202394686639308,0.0110684745013713,walking
1761225814315324700,-0.2521533908605575,-0.3505599890768527,0.4429074333846569,-0.183716744184494,0.0896899178624153,0.0217413585633039,walking
1761225814325337600,-0.3018507570959627,-0.1897422351330518,0.0657142889261245,-0.1646832376718521,0.1536762565374374,0.0364897958934307,walking
1761225814335350800,-0.37751675038971,-0.0622732085615396,-0.1347539228826761,-0.1293175369501114,0.1949494034051895,0.0588006973266601,walking
1761225814345363700,-0.3422331824973225,-0.0029009821385145,-0.2430705052167177,-0.0720143765211105,0.2357478141784668,0.0965154990553855,walking
1761225814355377700,-0.22553272963427,0.0512444495469331,-0.3105208241552114,0.0041376529261469,0.2560488283634186,0.143077403306961,walking
1761225814365390800,-0.1792499210827052,0.0501531471788883,-0.3013379852682352,0.0876103863120079,0.254164844751358,0.1857712715864181,walking
1761225814375403500,-0.2515540367279201,-0.065924132284522,-0.2548340082466602,0.183095097541809,0.2628166675567627,0.2137283235788345,walking
1761225814385416700,-0.3710729080125689,-0.1691360849559307,-0.1392968270093202,0.2549638748168945,0.2723337113857269,0.2208003252744674,walking
1761225814395431000,-0.4858300447881221,-0.3099012309521436,0.1017974096983671,0.3009476065635681,0.2605199515819549,0.2151664048433303,walking
1761225814405443600,-0.568367677417025,-0.5108148484408855,0.4053302746623754,0.3095791935920715,0.2433187067508697,0.2026296406984329,walking
1761225814415456800,-0.5750788654934614,-0.6813502788007259,0.626446137702465,0.2918049991130829,0.2491486221551895,0.1907553970813751,walking
1761225814425469700,-0.6136346599895507,-0.7778887450575828,0.678112612053752,0.2611237466335296,0.2826078236103058,0.185027927160263,walking
1761225814435482600,-0.6409884577959776,-0.7520750893652439,0.6595189707428216,0.2169467061758041,0.3136464357376098,0.1751896888017654,walking
1761225814445496800,-0.6995032636720687,-0.7474357391268015,0.6775614079117774,0.1626786589622497,0.3154624700546264,0.1586361676454544,walking
1761225814455509800,-0.7213990152683109,-0.7592986108779907,0.680499799451232,0.1140591874718666,0.309710830450058,0.1335473209619522,walking
1761225814465522700,-0.7844561407491565,-0.7891466366529464,0.549988336443901,0.0796483978629112,0.3127143383026123,0.1070488914847374,walking
1761225814475535600,-0.8502369921054691,-0.7633201214790344,0.3289472922056913,0.064662255346775,0.3286685347557068,0.0813701599836349,walking
1761225814485549600,-0.9147891053844244,-0.6541711799740791,-0.0368435837507247,0.0874646231532096,0.3926018178462982,0.054470632225275,walking
1761225814495562800,-0.9572535977568476,-0.5179255572289229,-0.4697574463874101,0.131512239575386,0.5322026014328003,0.0331895761191844,walking
1761225814505575700,-0.9536151681892572,-0.3651730363190174,-0.7910989397644996,0.1946952044963836,0.7028592824935913,0.0256042443215847,walking
1761225814515588900,-0.8272387591600417,-0.2264531324148178,-0.8057815451115369,0.2449812740087509,0.8297325372695923,0.0354933626949787,walking
1761225814525602600,-0.5207577484475449,-0.1633791288644075,-0.5198188236296176,0.2910437881946563,0.900554358959198,0.0739557817578315,walking
1761225814535615700,-0.1291383297569118,-0.1526192499190568,-0.1307528705477714,0.3224275410175323,0.9286903738975524,0.1371054500341415,walking
1761225814545628700,0.247935097312089,-0.1947930887818336,0.2693973711282014,0.3341752886772156,0.9251270294189452,0.2122555524110794,walking
1761225814555641600,0.5817274001298472,-0.2878185784816742,0.6405623413383961,0.3299360573291778,0.9196260571479796,0.2831776738166809,walking
1761225814565654800,0.773784378478676,-0.4454875130057334,0.8962778085947036,0.3096868991851806,0.8913763761520386,0.3392161130905151,walking
1761225814575669200,0.9278967164997012,-0.6480120728224515,1.0709937395095823,0.2793540060520172,0.8291367292404175,0.3890888690948486,walking
1761225814585682400,1.1328221999783068,-0.8162304584115743,1.1946177810907364,0.2293234467506408,0.7242936491966248,0.4315718710422516,walking
1761225814595695400,1.2917157809264956,-0.969027402985096,1.4055185395866632,0.1256710886955261,0.5828238725662231,0.4564093053340912,walking
1761225814605708300,1.2988503089815375,-1.1642688200563192,1.6204846478253605,-0.0216826982796192,0.3546149730682373,0.4834476411342621,walking
1761225814615722500,1.304980190038681,-1.264701955664158,1.6483511443942784,-0.1731273382902145,0.1024392023682594,0.5125671625137329,walking
1761225814625735200,1.1860112077217548,-1.1339145983248948,1.1682710414350033,-0.293461263179779,-0.0862171798944473,0.531882107257843,walking
1761225814635748400,0.819044492918998,-0.8048796278357505,0.3331839068621396,-0.3810909986495971,-0.1856031566858291,0.5304173827171326,walking
1761225814645761300,0.2755567522744648,-0.3797165254563093,-0.6434183152914047,-0.4309359192848205,-0.2020722180604934,0.5103746056556702,walking
1761225814655774500,-0.1811368308078497,0.1361059220135211,-1.537104353827238,-0.4413225352764129,-0.0970754921436309,0.4901785254478454,walking
1761225814665788400,-0.4657013028644025,0.5796329486012458,-2.4733067610532045,-0.3924512863159179,0.1522716283798217,0.48846435546875,walking
1761225814675801300,-0.6420088868848979,0.9556582183241844,-3.3526234979748724,-0.2693322896957397,0.5026363134384155,0.50095534324646,walking
1761225814685814300,-0.7367760326202958,1.266243924409151,-3.9296933180898415,-0.0831671729683876,0.9002484679222107,0.5323139429092407,walking
1761225814695827200,-0.7440378403168171,1.5145850635051727,-3.926772462207079,0.1322061270475387,1.2336245775222778,0.5378490090370178,walking
1761225814705841400,-0.661313306813687,1.5131903942763805,-3.1402889072835443,0.3117006421089172,1.3744362592697144,0.519766628742218,walking
1761225814715854300,-0.3372941917251795,1.2690402771294116,-1.7949217617988584,0.4422793984413147,1.35061514377594,0.5128980875015259,walking
1761225814725867300,0.2083516220023855,0.9813900409519672,-0.5348100565344095,0.5273500680923462,1.2577682733535769,0.5330033302307129,walking
1761225814735880400,0.7239494304034858,0.7284533907592297,0.460548304015398,0.5485746264457703,1.0920370817184448,0.571173906326294,walking
1761225814745894400,1.059443075512722,0.5168424381673336,1.3286328683048485,0.5312637686729431,0.8808072209358215,0.6083796620368958,walking
1761225814755907300,1.2339724708795548,0.3422381509333849,1.9231074122071263,0.4752265512943268,0.6202967762947083,0.6346179246902466,walking
1761225814765920500,1.4229675409071147,0.1418091020911931,2.290671727576852,0.4072682857513428,0.3501134812831878,0.6538175344467163,walking
1761225814775933200,1.425994341382384,-0.027889292922616,2.4094950908780097,0.3219520449638366,0.110377587378025,0.6458650827407837,walking
1761225814785946400,1.2397794035926462,-0.1197702887624502,2.3681816682368515,0.2002659738063812,-0.1016386225819587,0.6028210520744324,walking
1761225814795960300,0.8616296159964054,-0.1688829869776964,2.192515889251232,0.0568108186125755,-0.2401941120624542,0.5456405878067017,walking
1761225814805973200,0.4889762338593602,-0.0860030437171459,1.739407379847765,-0.0825815200805664,-0.2738527357578277,0.4956996738910675,walking
1761225814815986400,0.191725371774286,0.0935761093199253,1.0764660334408285,-0.1984338164329528,-0.2181788086891174,0.4508760273456573,walking
1761225814825999400,-0.0715352592977229,0.3374567618757486,0.4012053036868572,-0.2823352813720703,-0.1153720170259475,0.4102731943130493,walking
1761225814836013300,-0.2537463226078078,0.571508678856492,-0.1470136849969625,-0.3209572434425354,-0.0108530633151531,0.3780010044574737,walking
1761225814846026500,-0.3972547394301742,0.7255149992197751,-0.6353712024360895,-0.3072342872619629,0.1358056813478469,0.3439949452877044,walking
1761225814856039200,-0.5226307757778093,0.749478643131256,-1.2340917133450506,-0.2292252331972122,0.3514562249183655,0.3016727864742279,walking
1761225814866052400,-0.6755095899485051,0.7600900535166263,-1.5490934823065996,-0.1267977356910705,0.54988032579422,0.2478361427783966,walking
1761225814876065300,-0.768674195858091,0.7606517790526152,-1.4276941310375928,-0.0304176770150661,0.6543694734573364,0.1720526963472366,walking
1761225814886079200,-0.7122695140037685,0.7114490644663571,-0.9731570501357316,0.0596623606979846,0.6698343753814697,0.1051931679248809,walking
1761225814896092400,-0.4539321372786536,0.59930094114542,-0.3635544952064752,0.1209403648972511,0.5964720249176025,0.0535803064703941,walking
1761225814906105300,-0.1718605597500689,0.5011462718635797,0.203246444350481,0.1526605039834976,0.480181336402893,0.0248719193041324,walking
1761225814916118300,0.0654018163103144,0.467348047158122,0.57776014046669,0.1564211547374725,0.390674889087677,0.0217759944498538,walking
1761225814926132500,0.2259962920254096,0.4701666117101907,0.8420061201810837,0.1345146745443344,0.3127126097679138,0.0248786937445402,walking
1761225814936145400,0.2988459309904836,0.4676975912481546,1.0524655646502972,0.0820844918489456,0.2312457263469696,0.0253546014428138,walking
1761225814946158300,0.3310513518128544,0.4139823676735162,1.1873369764328,0.0151627277955412,0.1700431853532791,0.0383137054741382,walking
1761225814956171300,0.3496158400945365,0.3734276544451713,1.2577940759718418,-0.0584044344723224,0.1075795441865921,0.0528713427484035,walking
1761225814966184400,0.2709514321697875,0.3262555689036846,1.297079207655787,-0.1453904658555984,0.0490812100470066,0.053355298936367,walking
1761225814976198400,0.1188299026397988,0.2135404593497514,1.2220306886732577,-0.2163719534873962,0.0045795212499797,0.0458616949617862,walking
1761225814986211300,0.0054015485162846,0.1593400826066732,0.9767378312319516,-0.2518912553787231,-0.0045578926801681,0.0326097793877124,walking
1761225814996224500,-0.1432983360019512,0.2323392678439617,0.6456593722164631,-0.2634278237819671,-0.0157783217728137,0.0190114118158817,walking
1761225815006237200,-0.2414395430140197,0.3217074040800333,0.3778963242918253,-0.2481637895107269,-0.0230458620935678,0.0067656044848263,walking
1761225815016251400,-0.3081120825130492,0.3471095563620329,0.1023158806145191,-0.2078214287757873,-0.0078887473791837,0.0005801464430987,walking
1761225815026264300,-0.3051595163177699,0.3259901959657669,-0.1674871487051248,-0.1445425450801849,-0.0036998125724494,0.0011075264774262,walking
1761225815036277200,-0.2427768012334592,0.2876835539251566,-0.3402905239969492,-0.0617938600480556,-0.0138768162578344,-0.0036550043150782,walking
1761225815046290400,-0.1931340877947397,0.1880184800803661,-0.3755681736052036,0.0114131513983011,-0.0299701578915119,-0.0186426695436239,walking
1761225815056304000,-0.232672445321083,0.0861012433946132,-0.2308779631197452,0.0588605627417564,-0.0872595459222793,-0.0435240492224693,walking
1761225815066317300,-0.2020388951916247,-0.0612450345575809,0.1095300497770309,0.061688058078289,-0.1780673712491989,-0.0650853738188743,walking
1761225815076330500,-0.122142516052816,-0.2059977888852357,0.465068996310234,0.0384125597774982,-0.276621401309967,-0.0859475061297416,walking
1761225815086343200,-0.0086828352092765,-0.3295499342739582,0.6821773772746325,-0.0184069499373435,-0.3682546317577362,-0.0971517115831375,walking
1761225815096356400,0.0524928787054494,-0.3807487911134958,0.7185083353281021,-0.0810804516077041,-0.4421001076698303,-0.0919686630368232,walking
1761225815106370300,0.0743864611774915,-0.3300157982200384,0.5263952794104815,-0.1350199580192566,-0.4786209166049957,-0.0724294707179069,walking
1761225815116383200,0.0661555846865288,-0.2155868704855442,0.1203419511705636,-0.1547379940748214,-0.4634262323379516,-0.0463185049593448,walking
1761225815126396400,-0.0455415480304742,-0.093323011341691,-0.347827349242568,-0.1454941183328628,-0.4485809504985809,-0.0138869881629943,walking
1761225815136409300,-0.1688358233677223,-0.0411591088622808,-0.6346113239794969,-0.1035796925425529,-0.4728527367115021,0.0043530026450753,walking
1761225815146423300,-0.2912616498739458,-0.1089683242410421,-0.8305342935740947,-0.0369083061814308,-0.5085026621818542,0.0065737385302782,walking
1761225815156436200,-0.4052528255119919,-0.2599304546028375,-1.0440431887418031,0.067023679614067,-0.5457472205162048,-0.0063524465076625,walking
1761225815166449400,-0.5434145110115408,-0.4151403055369854,-1.198779576945305,0.1758787482976913,-0.5621880292892456,-0.0453065782785415,walking
1761225815176462300,-0.6934978127121925,-0.5650900439858436,-1.2044856796324253,0.2647721469402313,-0.5787265300750732,-0.1079257503151893,walking
1761225815186475300,-0.796425541614741,-0.7677811925411224,-0.9846142636954784,0.3132925629615783,-0.6194202303886414,-0.1834335476160049,walking
1761225815196489200,-0.7860510087251663,-0.9717916070014238,-0.5574789844602346,0.3002976775169372,-0.694767415523529,-0.2643787264823913,walking
1761225815206502400,-0.7269752810306847,-1.1861702707409858,-0.1609358273655176,0.2257509380578994,-0.7527412176132202,-0.3457919657230377,walking
1761225815216515300,-0.6872412365354598,-1.318387368622422,0.0653624067485332,0.1005789116024971,-0.7886714935302734,-0.4249770641326904,walking
1761225815226528500,-0.6882168035693467,-1.3448995279729363,0.1997246999651193,-0.0608049482107162,-0.8380613327026367,-0.5028774738311768,walking
1761225815236542200,-0.7053937830153852,-1.2669739922493697,0.2469119830757379,-0.2385754734277725,-0.8821065425872803,-0.564359188079834,walking
1761225815246555400,-0.7825310179054736,-1.031453171759844,0.1052139401435852,-0.3942290842533111,-0.9102994799613952,-0.5926476716995239,walking
1761225815256568300,-0.776338593006134,-0.6655120736777782,-0.2438520109832286,-0.4732357263565063,-0.9018223285675048,-0.6039496064186096,walking
1761225815266581200,-0.7415954886659979,-0.3360848890006542,-0.8690338278383016,-0.479187935590744,-0.854396641254425,-0.5992085337638855,walking
1761225815276594400,-0.760011289191991,0.0457172105580568,-1.5350556046038866,-0.4002880454063415,-0.7670897245407104,-0.584003210067749,walking
1761225815286608100,-0.8202238388966768,0.3893956234276294,-2.078439428216219,-0.2560040950775146,-0.6317827105522156,-0.5623623728752136,walking
1761225815296621300,-0.8561199126642197,0.6353799702644348,-2.445416883608699,-0.0747632086277008,-0.5123865604400635,-0.5473671555519104,walking
1761225815306634500,-0.8523996500320732,0.7522872708112001,-2.4376924268364903,0.1278516948223114,-0.4348699748516083,-0.533347487449646,walking
1761225815316647200,-0.8248739297248423,0.7657569932371378,-2.19600782302022,0.3223409950733185,-0.3727045953273773,-0.5342260599136353,walking
1761225815326661400,-0.740687141649425,0.7243839493632316,-1.772730972778797,0.4841885864734649,-0.3406989574432373,-0.538129448890686,walking
1761225815336674300,-0.6418565458673984,0.6531780772835016,-1.0633154599666594,0.5883796811103821,-0.3536219596862793,-0.5400221943855286,walking
1761225815346687200,-0.4718038575232028,0.5767477485537529,-0.2934878562897444,0.6416085362434387,-0.3633520603179931,-0.5345677137374878,walking
1761225815356700400,-0.2984103343185037,0.5102987156122922,0.3120604548126459,0.6467159390449524,-0.3574763238430023,-0.5335807204246521,walking
1761225815366713300,-0.2186405224351212,0.3870060979425906,0.8949369153797626,0.5886505842208862,-0.3735463321208954,-0.5528114438056946,walking
1761225815376727300,-0.1815085501970723,0.2221311775624752,1.4116589420378207,0.484622985124588,-0.406522661447525,-0.575791597366333,walking
1761225815386740200,-0.148674640479125,0.0989127941727638,1.7222750432610512,0.3585119843482971,-0.4092034995555877,-0.59847092628479,walking
1761225815396753400,-0.1832795419249683,0.0217430452525615,1.7131582553476097,0.2284107208251953,-0.374515026807785,-0.6255853176116943,walking
1761225815406766300,-0.2731669893274083,0.0548930351823568,1.650509783732891,0.0831263661384582,-0.3348161578178406,-0.6621395945549011,walking
1761225815416780300,-0.2859604199269786,0.1306704529613256,1.721162113583088,-0.0762387961149215,-0.32148277759552,-0.6955865025520325,walking
1761225815426793200,-0.1764278493992984,0.2089636529535055,1.7349153291255237,-0.2278055995702743,-0.3191348016262054,-0.6984562277793884,walking
1761225815436806400,0.0786826011685654,0.3602390870481729,1.5911550929665566,-0.3600597679615021,-0.3140790462493896,-0.665381133556366,walking
1761225815446819300,0.2824614718953147,0.603223083025217,1.26083709692955,-0.4508719444274902,-0.2833587229251861,-0.5978929400444031,walking
1761225815456832500,0.4629190517347306,0.8360995264858007,0.8173334512174129,-0.4910433292388916,-0.2407811731100082,-0.5196652412414551,walking
1761225815466846200,0.5640580340569838,1.012373792758584,0.3684440208137035,-0.4889806807041168,-0.1938503235578537,-0.4268491566181183,walking
1761225815476859400,0.5987964622220024,1.128248243126273,0.0320119258105754,-0.4368298351764679,-0.1686640083789825,-0.3268509209156036,walking
1761225815486872300,0.6244518220800906,1.153242983651161,-0.1997773069351911,-0.3489694893360138,-0.1600632667541504,-0.2281506061553955,walking
1761225815496885200,0.6002939342381433,1.0542676456362008,-0.4277992961019277,-0.2244605720043182,-0.151308387517929,-0.1424910873174667,walking
1761225815506899500,0.474080899077095,0.9654261636227368,-0.5061702375054359,-0.1037104949355125,-0.1408025622367859,-0.0872577875852584,walking
1761225815516912000,0.2952013822093606,0.7727455369502305,-0.4721621694415807,0.0203118547797203,-0.1337771415710449,-0.0586570315062999,walking
1761225815526925300,0.2014508296379819,0.5838795001298189,-0.3936667248755693,0.1369876861572265,-0.1004970669746398,-0.0393072143197059,walking
1761225815536938500,0.1869278352994471,0.4450438608914613,-0.3173895408809185,0.2348969429731369,-0.0419149808585643,-0.0226483438163995,walking
1761225815546951200,0.2349894535591825,0.3343593803822994,-0.1051701010018587,0.2886320948600769,0.0094737214967608,-0.0097124530002474,walking
1761225815556965400,0.2812158192157745,0.1842518210232257,0.339992417833209,0.2770843505859375,0.0371578112244606,0.0100719043985009,walking
1761225815566978300,0.34195228319671,-0.0071551324516534,0.8510422440737485,0.2174973636865615,0.0286591742187738,0.0267979465425014,walking
1761225815576992300,0.4098600635791197,-0.1657499496489763,1.3471744871675968,0.1143816262483596,-0.0084663573652505,0.0425689220428466,walking
1761225815587005200,0.4647685885915532,-0.3176958303511142,1.6782833413213492,0.0010804287157952,-0.0618788041174411,0.0483254753053188,walking
1761225815597019100,0.4690533897712826,-0.4458896640658378,1.7338783872932195,-0.1111856624484062,-0.0844341814517974,0.0531252920627594,walking
1761225815607032000,0.3870564033577218,-0.4304197077333926,1.5005658905029295,-0.1943252831697464,-0.0484599359333515,0.0639720782637596,walking
1761225815617045200,0.2371655920218676,-0.3559346678525209,1.0655834048986434,-0.2388408184051513,0.0199734512716531,0.069486953318119,walking
1761225815627058200,0.0902508008221164,-0.2589981421887875,0.6846072347700596,-0.2653027772903442,0.0826943218708038,0.0747570395469665,walking
1761225815637071000,0.0061766793409362,-0.1476461376816034,0.4587906466931104,-0.2679893672466278,0.127242624759674,0.0852198004722595,walking
1761225815647085300,0.0415035749183967,-0.1437450385898351,0.2888198644787073,-0.2463949173688888,0.1573080569505691,0.1086680591106414,walking
1761225815657098000,0.0892418795078992,-0.1697463258087635,0.1093248825937509,-0.2108020335435867,0.1766404658555984,0.1426601111888885,walking
1761225815667111200,0.0885411473600193,-0.1577250486254692,-0.0142348615795373,-0.1522515267133712,0.1706591248512268,0.1748602837324142,walking
1761225815677124400,0.0255853633617982,-0.1290045655757188,-0.087612232479453,-0.090692825615406,0.1469260901212692,0.204408049583435,walking
1761225815687138000,-0.0515371488831937,-0.1414823543548584,-0.0856803876340389,-0.0161448214203119,0.1298549622297287,0.2283573299646377,walking
1761225815697151200,-0.1420981116330251,-0.1730821922332048,-0.1609668070256709,0.0508746951818466,0.1327349096536636,0.2510850131511688,walking
1761225815707164200,-0.2746420668486505,-0.2358160040438175,-0.1972188546240329,0.1090524718165397,0.1456687450408935,0.2619793713092804,walking
1761225815717177000,-0.4177597673203796,-0.2942880667567253,-0.1620598629593849,0.1493114829063415,0.160729706287384,0.2621114552021026,walking
1761225815727190300,-0.5115191607853398,-0.3315665347933769,-0.1155634847223758,0.1796052306890487,0.2042296230792999,0.2674887776374817,walking
1761225815737204000,-0.5645650337310507,-0.3298036167740821,-0.0656231035113334,0.1966854035854339,0.2669859528541565,0.28038489818573,walking
1761225815747217200,-0.6236958160810172,-0.3661702306628227,0.0308288535058498,0.1948480904102325,0.3268977403640747,0.2908708155155182,walking
1761225815757230000,-0.6044465238729492,-0.4452046044111251,0.1919084732562303,0.1813589185476303,0.3561102449893951,0.294845312833786,walking
1761225815767243300,-0.6436096731450408,-0.5421019671082496,0.4415349759876728,0.1626781374216079,0.3523789048194885,0.2887634932994842,walking
1761225815777256200,-0.7207102292865515,-0.5879746604889631,0.6829074451148509,0.1494480967521667,0.320138931274414,0.2733767926692962,walking
1761225815787270100,-0.7918173171669244,-0.6485901649713516,0.7549258026212453,0.1475618332624435,0.2943116724491119,0.2475313395261764,walking
1761225815797283000,-0.8441403557308018,-0.6306786607056856,0.6460778898894787,0.1505272537469864,0.3018481433391571,0.2290364950895309,walking
1761225815807296000,-0.9425755955196916,-0.5667191064924001,0.536965188741684,0.1479848027229309,0.3100171983242035,0.1930476725101471,walking
1761225815817309200,-0.9977982279825957,-0.4978887313723564,0.4572305577695369,0.1242024973034858,0.3432773947715759,0.162791758775711,walking
1761225815827323100,-0.99938220923841,-0.4601537517398595,0.3685702775418758,0.1015069559216499,0.4247092604637146,0.1393878161907196,walking
1761225815837336000,-0.9397279510036112,-0.4025146327197551,0.231283036789298,0.0825319290161132,0.5383669137954712,0.1277663111686706,walking
1761225815847349200,-0.8142197031110525,-0.2759206354171037,0.1288870766758918,0.0646499320864677,0.6396946907043457,0.1294703334569931,walking
1761225815857362200,-0.6630534284792841,-0.1741220566749572,0.1385433782935142,0.0593923181295394,0.7239028215408325,0.147670641541481,walking
1761225815867375000,-0.4137412889266386,-0.0930687443196773,0.1909960345864295,0.0703864395618438,0.7940365076065063,0.1824210286140442,walking
1761225815877389300,-0.1320479883922264,-0.102968791565299,0.2862128968507051,0.077121578156948,0.8304874897003174,0.2243447750806808,walking
1761225815887402000,0.1295924210668075,-0.1991734958231449,0.3913479265391826,0.0837414115667343,0.8434087038040161,0.2660093307495117,walking
1761225815897415200,0.3576617473734542,-0.3479682190179824,0.4757587326288223,0.0819688141345977,0.8277344107627869,0.2972018718719482,walking
1761225815907428400,0.570103999690339,-0.4520154534697532,0.6195891114145518,0.0599889457225799,0.784838080406189,0.3456940352916717,walking
1761225815917442000,0.8469831779412925,-0.550085367077589,0.8332897297620773,0.0146121401339769,0.687716543674469,0.4039472043514251,walking
1761225815927455200,1.0547536755874751,-0.7329694068789482,1.0935627141922712,-0.0704593583941459,0.5335763096809387,0.4562123119831085,walking
1761225815937468200,1.1494007751397788,-0.9712287124216556,1.3160001812249422,-0.1897575259208679,0.3024709522724151,0.5028035044670105,walking
1761225815947481000,1.068779059134796,-1.0308458535164593,1.2958803532600405,-0.3096610605716705,0.0584821552038192,0.5440765619277954,walking
1761225815957494300,0.7827472179394215,-0.9338917921960354,0.7958452575087547,-0.4037278890609741,-0.0985788330435752,0.5583340525627136,walking
1761225815967508000,0.3162741269849241,-0.7269651980280876,-0.1613163511157035,-0.4653735756874084,-0.1358918994665146,0.5330254435539246,walking
1761225815977521200,-0.3319908611526712,-0.4298375239312648,-1.2147159817457198,-0.4806766211986542,-0.0162413883954286,0.4763293862342834,walking
1761225815987534000,-0.8912468286901712,-0.068771922931075,-2.0576058990240096,-0.4757367074489593,0.1435475647449493,0.3907285928726196,walking
1761225815997547300,-1.0578181777246296,0.2081523365706205,-2.4742916804373265,-0.4159955978393554,0.3401460945606231,0.3407272100448608,walking
1761225816007561200,-1.019254638313502,0.4838362406224012,-2.8747809448093173,-0.2936204075813293,0.6542159914970398,0.3239232301712036,walking
1761225816017574100,-0.9938293974168598,0.939746947965026,-3.193250097620487,-0.1111376956105232,1.0063055753707886,0.3240396380424499,walking
1761225816027587000,-0.7329427380677312,1.2749468708246945,-3.036350978425145,0.099484235048294,1.171217441558838,0.3284845054149627,walking
1761225816037600000,-0.3153389284940436,1.2367132940202952,-2.314649400013685,0.2946976721286773,1.1838988065719604,0.3624741733074188,walking
1761225816047613200,0.2864322752224281,1.1817951243966818,-1.419620130175352,0.4531354904174804,1.1234859228134155,0.402714729309082,walking
1761225816057627100,0.7099756309129297,0.8833633819639682,-0.5950643264889717,0.5556458830833435,1.004245042800903,0.4459381103515625,walking
1761225816067640000,0.973618822428584,0.6194850665181875,0.3169014651030302,0.5954235196113586,0.7870684266090393,0.4793616831302643,walking
1761225816077653200,1.196310994874686,0.386986808720231,1.198784837642312,0.5653252601623535,0.5190126895904541,0.4976402819156647,walking
1761225816087666200,1.3683341795742512,0.1275736559897661,1.765364243403077,0.4891878366470337,0.2321956157684326,0.5164017677307129,walking
1761225816097679000,1.604006537363678,-0.1500011763751506,2.0589988146871328,0.3777827620506286,-0.0187194384634494,0.5415380001068115,walking
1761225816107693300,1.526562355416268,-0.2800000136852264,1.975183051881194,0.2414763420820236,-0.1858038008213043,0.5391421914100647,walking
1761225816117706000,1.0993138981301336,-0.2236842522233724,1.752130083298683,0.0804365798830986,-0.2903738915920257,0.503193199634552,walking
1761225816127719200,0.5082227130558341,-0.1380874512195587,1.3877081576079129,-0.0873962044715881,-0.3314408361911773,0.4415653347969055,walking
1761225816137732400,0.0458439878760371,-0.0488870727658271,0.7984569013118743,-0.2302790582180023,-0.281359314918518,0.3596286475658417,walking
1761225816147746000,-0.2939173154818825,0.0990396354228258,0.1385316878557205,-0.3402565717697143,-0.1416621655225753,0.2677522003650665,walking
1761225816157759200,-0.5592358380649238,0.2455430328100919,-0.5287000492215156,-0.4105307459831238,0.049578096717596,0.1773661077022552,walking
1761225816167772200,-0.7118596180286259,0.4166337589651346,-1.132211886060238,-0.4131017625331878,0.2942343950271606,0.1178976744413375,walking
1761225816177785000,-0.6357040876522659,0.7340642163783312,-1.6863450672239064,-0.3423791229724884,0.5829634070396423,0.0817117020487785,walking
1761225816187798300,-0.6247185101922601,1.059284012493491,-1.928190414559841,-0.2202913016080856,0.8050658702850342,0.0725317746400833,walking
1761225816197812000,-0.3792079548796638,1.257379649952054,-1.6313286979228256,-0.0870307087898254,0.9011815190315248,0.0744005143642425,walking
1761225816207825200,0.0300433291513472,1.2413409538209437,-1.0553355671286582,0.0262153968214988,0.8997392058372498,0.0863054245710372,walking
1761225816217838000,0.4286555476050823,1.0183540362119674,-0.3543932836294174,0.11494180560112,0.8312190175056458,0.1129018813371658,walking
1761225816227851300,0.7009368766717612,0.8817547777235507,0.3247691297382116,0.1717149466276168,0.7264819741249084,0.1422911435365677,walking
1761225816237864200,0.880824657266587,0.7842378218233584,0.9362193583607672,0.191536858677864,0.6035600304603577,0.1715856492519378,walking
1761225816247878100,0.9918514484073966,0.6751397337228059,1.410118142336607,0.1714303642511367,0.4595076143741607,0.2030374705791473,walking
1761225816257891000,1.0488564342424274,0.5464204148292541,1.7337755114406346,0.1272615641355514,0.3050898015499115,0.2477412819862365,walking
1761225816267904000,1.1482513859089465,0.4449532599985599,1.9545202030807731,0.0568131990730762,0.1537309885025024,0.3028083741664886,walking
1761225816277917200,1.1841146533854303,0.347006680509448,2.0026491509556767,-0.0190706476569175,0.0346469357609748,0.3583701550960541,walking
1761225816287931100,1.0901509329874068,0.2426958266854286,1.8729197782367464,-0.0947931185364723,-0.0477175563573837,0.3918040990829468,walking
1761225816297944000,0.8061126767620443,0.1293991178512573,1.63499481921494,-0.1649940460920334,-0.0712311342358589,0.3945999145507812,walking
1761225816307957200,0.4874985990548506,0.0250531927138566,1.2882406521618366,-0.219404399394989,-0.0469297543168067,0.3845790028572082,walking
1761225816317970000,0.2313986990582197,0.0318517668128013,0.9617255555391312,-0.2577038407325744,-0.0177798569202423,0.3642551004886627,walking
1761225816327983000,0.0786834779513999,0.0283165784239768,0.7225970659464598,-0.2621515989303589,0.0205840431153774,0.3391361832618713,walking
1761225816337997300,0.0147988704041577,0.0806213506788015,0.479116226363182,-0.2475449591875076,0.0945432186126709,0.3150750398635864,walking
1761225816348010000,-0.0169083368388004,0.1162169801950454,0.28528993678689,-0.2057722210884094,0.1263188570737838,0.2944358587265014,walking
1761225816358023200,0.1172020274433307,0.1367582484424114,0.2578103937089443,-0.157851293683052,0.1438704282045364,0.2891183197498321,walking
1761225816368036400,0.2930038538987748,0.1661976934164762,0.2818926955640315,-0.1087541580200195,0.1517881453037262,0.308673620223999,walking
1761225816378049000,0.3906142054371535,0.1426116506457328,0.4395756586134433,-0.0769663974642753,0.116083949804306,0.3331470191478729,walking
1761225816388063200,0.5091418737273663,0.05962415535748,0.6437737046003341,-0.0562401115894317,0.0502854101359844,0.3580059111118316,walking
1761225816398076200,0.5472517145542427,-0.1143318971008062,0.7862222736388444,-0.0502868816256523,-0.0101792644709348,0.3620661497116089,walking
1761225816408089000,0.4863179379029199,-0.2741542102664709,0.8684200798541307,-0.0547577962279319,-0.0719653964042663,0.3433920741081238,walking
1761225816418102300,0.2986146977841853,-0.443390248465538,0.8710352307885885,-0.0730795487761497,-0.1290393471717834,0.3176901638507843,walking
1761225816428116000,0.1930686396094039,-0.5023749368757009,0.8357002980351448,-0.1089232265949249,-0.2059327661991119,0.2843570113182068,walking
1761225816438129200,0.0768181772698648,-0.5601613554120063,0.7472954538732767,-0.1520994454622268,-0.2647947669029236,0.256096601486206,walking
1761225816448142000,-0.0610949220297858,-0.6776958479464054,0.39579146194458,-0.1784953474998474,-0.2915875315666199,0.2218791991472244,walking
1761225816458155300,-0.081004331247555,-0.6221656839042902,0.0215758719921112,-0.2015396803617477,-0.3364218473434448,0.2024639546871185,walking
1761225816468168200,-0.0793398229682818,-0.4932879595786333,-0.2435410453379154,-0.1919587254524231,-0.3738609254360199,0.2030789852142334,walking
1761225816478182100,0.0011522570413537,-0.3515846559494733,-0.618285043078661,-0.1641609072685241,-0.3893706202507019,0.2273691445589065,walking
1761225816488195000,0.0688231142621953,-0.2595943545162678,-1.0619541084855797,-0.1039870530366897,-0.3639250695705414,0.2575685381889343,walking
1761225816498208000,-0.0410750838406384,-0.2243511916995048,-1.515724296668172,-0.0228181648999452,-0.312885582447052,0.2715634703636169,walking
1761225816508221200,-0.2955663795968517,-0.1885802056163549,-1.762588348948955,0.0744955837726593,-0.2663236558437347,0.2609308063983917,walking
1761225816518234400,-0.4945515497736633,-0.2838216177999973,-1.8437199872374532,0.178619310259819,-0.2282859832048416,0.2227056622505188,walking
1761225816528248000,-0.6236123025160283,-0.4230214141756296,-1.806125877380371,0.2684653401374817,-0.1825078725814819,0.1659043878316879,walking
1761225816538261200,-0.6939134077757596,-0.5628939952462911,-1.644066014420986,0.3229549527168274,-0.1689747422933578,0.1149274930357933,walking
1761225816548274000,-0.6453383235685527,-0.6405208402842283,-1.2949310897111892,0.323971539735794,-0.1666066199541092,0.0677419453859329,walking
1761225816558287000,-0.5305185698855668,-0.725199941921234,-0.9826169523984192,0.2786788940429687,-0.127074122428894,0.0309607647359371,walking
1761225816568301300,-0.4101411820754408,-0.8027654121607541,-0.7155740354418754,0.1803233623504638,-0.0605487450957298,0.005589451175183,walking
1761225816578313200,-0.2430029929384589,-0.8815314903616904,-0.3837503110170364,0.0395422838628292,-0.0376562140882015,-0.0068142209202051,walking
1761225816588326000,-0.0283520150635391,-0.9062743019521236,-0.0195148478090763,-0.1211696863174438,-0.0570629872381687,-0.0109749510884284,walking
1761225816598339000,0.0200416846947744,-0.8673685249745845,0.2441875265479087,-0.2771957814693451,-0.0958322212100029,-0.0080401478335261,walking
1761225816608352000,-0.0114515144713222,-0.7864017218589783,0.181237441638112,-0.363109141588211,-0.0716511607170105,-0.0078208371996879,walking
1761225816618366000,-0.0903519231090322,-0.518352258208394,-0.354420171636343,-0.3753133714199066,-0.0293436478823423,-0.0034279534593224,walking
1761225816628379100,-0.1759242107260972,-0.1663625285893678,-0.8761006974846124,-0.3033164441585541,0.0515706203877925,0.0055567235685884,walking
1761225816638392000,-0.2292785650990903,0.1233802959531545,-1.3646446774065493,-0.1523477137088775,0.0872343480587005,0.0103498809039592,walking
1761225816648405000,-0.1846329292953014,0.3286825037896633,-1.6052210277199743,0.0340808294713497,0.0571037456393241,0.0138331204652786,walking
1761225816658418000,-0.0767259506754577,0.4581155239105224,-1.5089303987443443,0.2123080790042877,0.009220378473401,0.0343314707279205,walking
1761225816668432000,0.0767911248661577,0.4789923077225685,-1.291022976356745,0.3655688166618347,-0.0397391356527805,0.0648093894124031,walking
1761225816678445000,0.2447575815208256,0.5025865337997675,-0.9872463657647372,0.4694243669509887,-0.0868491232395172,0.1011753901839256,walking
1761225816688458000,0.332899500430189,0.5148053793817758,-0.5816308444201946,0.5354577898979187,-0.1264628469944,0.1466885358095169,walking
1761225816698471200,0.3955832625539973,0.5541325966417789,-0.1248953766912221,0.5567196607589722,-0.1817460805177688,0.1888341158628463,walking
1761225816708485000,0.4527132264755666,0.5117810631245374,0.4396446321964263,0.5194485187530518,-0.2611451745033264,0.2159489095211029,walking
1761225816718498000,0.4861344710947945,0.3284364200741052,0.957331704494357,0.4361185431480407,-0.3160949647426605,0.2237791419029235,walking
1761225816728511000,0.41683804936558,0.2239022788882255,1.2221803262770174,0.3525887429714203,-0.3231883347034454,0.2082693725824356,walking
1761225816738524000,0.2698828530902042,0.2335959899067878,1.1909177575290202,0.2594167292118072,-0.3806966245174408,0.1722930073738098,walking
