timestamp,acc_x,acc_y,acc_z,gyr_x,gyr_y,gyr_z,activity
1761225862357073000,0.4018506158530712,-0.1583119086027145,0.5646896464914083,-0.0173513125628232,-0.2953698635101318,-0.0603687800467014,walking
1761225862367085600,0.3276367210637778,-0.2977408375591039,0.5056657951146364,-0.0617526322603225,-0.2702897191047668,-0.0912384614348411,walking
1761225862377098800,0.1483087297761812,-0.2696563143253326,0.4441349293529987,-0.1021815463900566,-0.2111494243144989,-0.1002735048532486,walking
1761225862387111700,0.1160152562110219,-0.0499684382617473,0.449240728059411,-0.1420503556728363,-0.172876238822937,-0.0985122397541999,walking
1761225862397124900,0.1326894189677666,0.0439011010468006,0.5367676203429699,-0.1758328229188919,-0.1501932889223098,-0.0888708010315895,walking
1761225862407137800,0.1885370057954452,0.009449965390563,0.4991103821218013,-0.1924514323472976,-0.1424075812101364,-0.0782429799437522,walking
1761225862417150700,0.234797949575074,0.0228846165031194,0.4144441399663686,-0.1920181363821029,-0.1568001061677932,-0.0638975948095321,walking
1761225862427164000,0.2465949712821282,0.152143449100852,0.3486065169215202,-0.1712224185466766,-0.1694295555353164,-0.0350642874836921,walking
1761225862437177900,0.2534306259884499,0.2900514521002769,0.2143915232211351,-0.1594107747077942,-0.171573132276535,-0.005975114647299,walking
1761225862447190800,0.2464390866006724,0.2915630257070064,0.1599649365067482,-0.1882608979940414,-0.120523527264595,0.0278494413942098,walking
1761225862457204000,0.0521445127923507,0.1591068583726883,0.0302314721345901,-0.1653414666652679,-0.0383508913218975,0.0814679339528083,walking
1761225862467216600,0.0095760211893357,0.2533586749970913,-0.3659352528631687,-0.0912964418530464,0.0139495823532342,0.0900145322084426,walking
1761225862477229800,-0.0825603650505188,0.2897872482061386,-0.4568097020089626,-0.0386270992457866,0.0290038995444774,0.0617685131728649,walking
1761225862487242800,-0.3139077997123822,0.1939613141328096,-0.1908452279388904,-0.0188615918159484,0.0399500913918018,0.0430414974689483,walking
1761225862497255700,-0.2976040411706082,0.0457499437838792,0.1264613108336925,-0.0345811657607555,0.0212618913501501,0.0644242838025093,walking
1761225862507268600,-0.0711044575318694,-0.0260550632327795,0.376813205230236,-0.0639801621437072,-0.020882086828351,0.0892156660556793,walking
1761225862517282800,0.0847119261943735,-0.0511117630779743,0.6109621528446674,-0.1042487546801567,-0.0758414790034294,0.1271292269229889,walking
1761225862527295700,0.1196029511052183,0.0273860195755958,0.7603963429868221,-0.1378957480192184,-0.1323372721672058,0.1680454760789871,walking
1761225862537308700,0.072787643112149,0.049823476833105,0.6979653135150671,-0.1537980139255523,-0.1463204622268676,0.1996678560972213,walking
1761225862547321900,-0.0381841664384119,0.0318278014153242,0.5191740959852934,-0.1720954775810241,-0.1297003328800201,0.2358022928237915,walking
1761225862557334800,-0.180308965148963,0.008356909456849,0.384745167273283,-0.2075788974761963,-0.0835730507969856,0.272630900144577,walking
1761225862567347700,-0.278111058133468,-0.0790285285294055,0.3435205919593572,-0.2420396357774734,-0.0087758880108594,0.3148218989372253,walking
1761225862577361000,-0.3223767547089606,-0.3075105364233255,0.1557791752547025,-0.2256255149841308,0.0700488835573196,0.3733299672603607,walking
1761225862587373800,-0.3426247025655582,-0.405181806102395,-0.1252384910404682,-0.1517823189496994,0.1076717972755432,0.4172797203063965,walking
1761225862597386800,-0.3511888615649193,-0.4227659781098365,-0.2519447165459394,-0.0618564300239086,0.0518279746174812,0.4279784262180328,walking
1761225862607399700,-0.4138685320354998,-0.480112251663208,-0.0318371537655591,0.0012254728935658,-0.0410459451377391,0.4208127856254577,walking
1761225862617417700,-0.5141824982430786,-0.5893208144009113,0.2504991939127445,0.0454302206635475,-0.0999793037772178,0.4043842852115631,walking
1761225862627430700,-0.5696369667004794,-0.6890764891386032,0.3873872062146663,0.0710621550679206,-0.1161529123783111,0.3949370086193084,walking
1761225862637443800,-0.6145499482035637,-0.7104658986479043,0.5512456430286169,0.0823936387896537,-0.1299901753664016,0.3908671736717224,walking
1761225862647456800,-0.6719568659029901,-0.6280471431583166,0.7776356470793485,0.0801777690649032,-0.1480870097875595,0.3836857974529266,walking
1761225862657469700,-0.6618250557281077,-0.6171399646967649,0.91625852034986,0.0706111639738082,-0.1485256403684616,0.3722805380821228,walking
1761225862667483000,-0.6065623835157603,-0.7128010635972023,0.9665770872235298,0.0269941668957471,-0.1336316913366317,0.3630348145961761,walking
1761225862677495800,-0.5903583042224869,-0.8046569249957799,1.077753150641918,-0.0469604842364788,-0.0737877935171127,0.3593010604381561,walking
1761225862687508700,-0.6321633463054895,-0.8926175325214862,1.108337673997879,-0.1294737607240677,0.0406693182885646,0.3449410796165466,walking
1761225862697521700,-0.6908879224747418,-0.9331365899145604,1.0016811338305474,-0.2154448628425598,0.1714483797550201,0.3313477635383606,walking
1761225862707535600,-0.7904255705475807,-0.9276730638116596,0.893529971191287,-0.289535790681839,0.2811092138290405,0.2990858256816864,walking
1761225862717548800,-0.8900741316489875,-0.9683838443845508,0.7219084991604089,-0.3161050975322723,0.3750673830509186,0.2559583187103271,walking
1761225862727561700,-0.93789496342279,-0.952555576133728,0.4071387853890657,-0.3116475939750671,0.4231855273246765,0.2112978100776672,walking
1761225862737575000,-0.887173149510473,-0.8305190960049629,0.2404272972315549,-0.2847789824008941,0.4222848415374756,0.1717256307601928,walking
1761225862747587600,-0.7779457359418273,-0.6751444098979235,0.1563356400936842,-0.2362608760595321,0.3730859756469726,0.1595931649208068,walking
1761225862757600800,-0.600356587678194,-0.4949140994757413,-0.0385205770522356,-0.1590805947780609,0.3257437646389007,0.1693078428506851,walking
1761225862767614000,-0.4613413540892302,-0.3179313926726579,-0.4441705851882696,-0.0519198477268219,0.3312109708786011,0.2039944231510162,walking
1761225862777627000,-0.4366548027306794,-0.1271983929365873,-0.862608178704977,0.0588202476501464,0.3771430253982544,0.2386626601219177,walking
1761225862787639800,-0.4822011137012392,0.0003705868780612,-1.0438374370366337,0.1637976020574569,0.4354050755500793,0.2659614384174347,walking
1761225862797653800,-0.5588751880589873,0.0094102179020643,-0.96655779800117,0.2420607060194015,0.4842532873153686,0.2820533215999603,walking
1761225862807666700,-0.5801167500628158,0.0154652801573276,-0.7004559612870216,0.2966469228267669,0.4993573725223541,0.2857561409473419,walking
1761225862817680000,-0.5194541915683075,-0.0511854128360748,-0.4347404935419559,0.3288466930389404,0.5228714346885681,0.2844293415546417,walking
1761225862827692800,-0.5109278072960675,-0.1702846704691648,-0.312112477260828,0.3281257748603821,0.5847461819648743,0.2618666589260101,walking
1761225862837705700,-0.5782642175313085,-0.23836627304852,-0.2123725846141576,0.3002502024173736,0.6796175837516785,0.2422388941049575,walking
1761225862847718700,-0.6041270461276174,-0.2889800234764814,-0.1033767878443002,0.26164710521698,0.801996648311615,0.231575533747673,walking
1761225862857731800,-0.4711026504512876,-0.3473001104980707,0.0554804796814918,0.2181555330753326,0.9052825570106506,0.2342645227909088,walking
1761225862867744800,-0.2357903946785256,-0.5405418781846761,0.3413789037555456,0.1618401557207107,0.917640507221222,0.2475489526987075,walking
1761225862877757700,0.0604658440457424,-0.7152654078841209,0.7424561971485615,0.104757435619831,0.8130818605422974,0.2731326222419739,walking
1761225862887771000,0.2691843128994107,-0.8546727095305919,1.1183715767562388,0.0475181974470615,0.597038984298706,0.2970315217971802,walking
1761225862897784800,0.2928912055708468,-0.9007505700945854,1.1460147859632968,0.0181358065456151,0.352413535118103,0.3044505417346954,walking
1761225862907797800,0.1067740473334677,-0.8208148635923862,0.7838812634706497,0.0199403390288352,0.1760988086462021,0.2970033884048462,walking
1761225862917810700,-0.216878846524842,-0.5718050314545631,0.19054770629704,0.0279010608792305,0.1088412031531333,0.2801764905452728,walking
1761225862927824000,-0.5734566711191088,-0.2766203081190586,-0.2985720276862382,0.0350946187973022,0.1544038951396942,0.2460264861583709,walking
1761225862937836800,-0.8014582750849425,-0.1476806244730949,-0.6869342164129019,0.0334543772041797,0.2787322103977203,0.2180928587913513,walking
1761225862947849700,-0.7661957499805837,-0.0313192673712968,-1.0382347947239876,0.0539946369826793,0.4561373591423034,0.2106977850198745,walking
1761225862957863000,-0.6646156362947077,0.1034545292556285,-1.2235492765426634,0.0623577609658241,0.636457622051239,0.2085667103528976,walking
1761225862967875800,-0.5499482966944576,0.1641401763647794,-1.09156949454844,0.0589584484696388,0.7552717328071594,0.2101048082113266,walking
1761225862977888800,-0.3588837999816984,0.1082218897879123,-0.6497340743094683,0.0361844263970851,0.758965015411377,0.2216112613677978,walking
1761225862987903000,-0.08799707621173,-0.0298719911724329,-0.1553980669826269,-0.0004627401940524,0.659871518611908,0.2401709109544754,walking
1761225862997915600,0.1571334942067973,-0.2016191354095935,0.2407271569609642,-0.0386601947247982,0.4978950917720794,0.2608695030212402,walking
1761225863007928800,0.2547184007766656,-0.265901345705986,0.4208692045778036,-0.063650757074356,0.3376300930976867,0.2792376577854156,walking
1761225863017941800,0.3408382940728217,-0.2150204687744379,0.2255249116539955,-0.0584376156330108,0.2157212495803833,0.3181531131267547,walking
1761225863027955000,0.3768587979376316,-0.0499532406926155,-0.1572983476459979,-0.0317534543573856,0.1617455929517746,0.3652467727661133,walking
1761225863037967600,0.3134177146404981,0.1979763949930667,-0.5574748928070068,0.0208194740116596,0.188144713640213,0.4240342080593109,walking
1761225863047980800,0.1856784562928602,0.4159013530373573,-0.8809107281148433,0.0769175812602043,0.275648683309555,0.4654473960399627,walking
1761225863057994000,0.0160004282136447,0.4491109641999006,-1.0115297431498764,0.1591650396585464,0.3634235560894012,0.494534432888031,walking
1761225863068006700,-0.1041994293387979,0.3803986625015735,-1.2272685893267392,0.2535444796085357,0.4844129681587219,0.4861970245838165,walking
1761225863078019800,-0.2223239967208355,0.3185322811752558,-1.1985416765362022,0.3381589651107788,0.5309062004089355,0.4432942867279053,walking
1761225863088033800,-0.2927606014611199,0.1862754358053207,-0.8227531381785869,0.4072671830654144,0.4978263080120086,0.3823332786560058,walking
1761225863098046700,-0.2322593710081651,0.0554898320317268,-0.3777461021661758,0.4404528439044952,0.4304046630859375,0.3126870691776275,walking
1761225863108060000,-0.0458881649444811,-0.0744558137863874,0.0365256038427352,0.4417034685611725,0.3411327600479126,0.2592760026454925,walking
1761225863118072800,0.1704519167948514,-0.1039239003330469,0.3914057942062616,0.414804995059967,0.2516721487045288,0.2167509198188781,walking
1761225863128085800,0.3771988070143386,-0.077427523073554,0.566577652195096,0.3742763996124267,0.2025264352560043,0.1938892900943756,walking
1761225863138098700,0.554423067488335,-0.0388543390512466,0.6480570810079574,0.3140996098518371,0.185477152466774,0.1767132431268692,walking
1761225863148112000,0.6932089858334511,-0.0301578223764896,0.6656260554462671,0.2426375299692154,0.191046267747879,0.170533001422882,walking
1761225863158124800,0.7173141571074724,0.0311807356834411,0.6604319939345121,0.1789304614067077,0.208289697766304,0.1663395911455154,walking
1761225863168137700,0.670291928365454,0.159441204893589,0.6530676026463508,0.1349673122167587,0.2188518941402435,0.1531091183423996,walking
1761225863178152000,0.6112560942899435,0.2901210102051496,0.598642769497633,0.0977107509970665,0.2216404974460601,0.1374284327030182,walking
1761225863188164600,0.5594903973478823,0.3285848886340856,0.5230547368109226,0.0862996131181716,0.2361774742603302,0.1204985603690147,walking
1761225863198177800,0.4560763827657327,0.3216735018104315,0.3269681010872125,0.0911316499114036,0.2772199809551239,0.0896999016404151,walking
1761225863208190700,0.3399883261799812,0.3512912259608507,0.1555371831923723,0.1095582842826843,0.2929290533065796,0.0554435551166534,walking
1761225863218204000,0.3029384792674333,0.4678407991111278,0.2173655705958604,0.1312867552042007,0.2777226567268371,0.0281642638146877,walking
1761225863228216800,0.3134577543899416,0.523378561937809,0.3493465216338634,0.1414719820022583,0.2548381686210632,0.0121120642870664,walking
1761225863238229800,0.3733579867424443,0.5471253482282161,0.5208101727545261,0.1431521624326706,0.2347672283649444,0.0044030123390257,walking
1761225863248243000,0.4184142126411199,0.5394885697394609,0.7054279044806957,0.1278639137744903,0.2073921263217926,0.0105640236288309,walking
1761225863258255600,0.464834712630324,0.5266472083449364,0.9159352797448634,0.0801267549395561,0.1914291381835937,0.0307984557002782,walking
1761225863268269800,0.4618658163547515,0.4328624247103929,1.140201131248474,0.0182531680911779,0.1880645900964737,0.0380700379610061,walking
1761225863278283000,0.38649087842945,0.217381352686882,1.303939156553149,-0.0625213086605072,0.2194704413414001,0.0371046438813209,walking
1761225863288295700,0.3148899791501462,0.0344014512956142,1.3481862945586442,-0.1357210427522659,0.260343074798584,0.0186153948307037,walking
1761225863298308900,0.2908818385098129,-0.0827712221890688,1.2354852135300636,-0.1903611272573471,0.2752319872379303,-0.006686232984066,walking
1761225863308321800,0.2268923640822991,-0.1353717625200748,1.1818658515453335,-0.2327406406402588,0.2678276598453522,-0.0390672869980335,walking
1761225863318334700,0.2408329919556155,-0.1176753623098134,1.1817243972480296,-0.2732441425323486,0.2327778041362762,-0.0599619150161743,walking
1761225863328347600,0.3417951564062386,-0.0456651881098747,1.132709314188361,-0.2966836392879486,0.1781719177961349,-0.0806926563382148,walking
1761225863338360800,0.3472629202928394,-0.0062380176067352,1.0445108062535524,-0.3077083230018616,0.1052734777331352,-0.0867601335048675,walking
1761225863348374000,0.426162525212951,0.1110229186832904,0.954353565466404,-0.3018960356712341,0.0132723413407802,-0.0775891095399856,walking
1761225863358386700,0.5216964906023815,0.2437801147907972,0.7917489281058311,-0.2877389192581177,-0.0644578784704208,-0.0492304414510726,walking
1761225863368401000,0.6162653738193213,0.3382634020835161,0.5436591334223747,-0.2601823508739471,-0.0994354635477066,-0.017989594489336,walking
1761225863378413600,0.7287509124010801,0.4213075959950685,0.1932961282223463,-0.2077968716621399,-0.0875103622674942,0.0305174868553876,walking
1761225863388426800,0.7671705132968724,0.5195750780016184,-0.2873497919261455,-0.1394550651311874,-0.0239744186401367,0.0878304168581962,walking
1761225863398440000,0.753868621718511,0.6272621302604675,-0.5525543875396252,-0.0717362090945243,0.0370407328009605,0.1321904212236404,walking
1761225863408452900,0.6889060279425233,0.6130541566878557,-0.4596563236117362,-0.0310161113739013,0.0279132667928934,0.1660274714231491,walking
1761225863418465800,0.7020677803978324,0.4881137718111276,-0.0750584558546543,-0.010737738572061,-0.0638331621885299,0.1930689364671707,walking
1761225863428478700,0.7503455621588975,0.2561614574581384,0.2840554265558719,-0.014319535344839,-0.2074179649353027,0.2099758088588714,walking
1761225863438492000,0.7320594524271786,0.0005471124887466,0.5104956994891167,-0.0234736185520887,-0.3734018802642822,0.1931238621473312,walking
1761225863448504600,0.624381971714273,-0.1255377662479877,0.540204609054327,-0.0459955669939518,-0.5054157376289368,0.1690079569816589,walking
1761225863458518800,0.4746481410384178,-0.099496147018671,0.3588619534760713,-0.0692215338349342,-0.5778806209564209,0.1433998048305511,walking
1761225863468532000,0.3385352778274565,0.0151969846099615,-0.0338391412377357,-0.0831463411450386,-0.5841591954231262,0.1338548362255096,walking
1761225863478544600,0.2217580334011465,0.1587999843806028,-0.5715045872032642,-0.0684504806995391,-0.5435819625854492,0.1368751376867294,walking
1761225863488557800,0.0957257707676384,0.2994762830495834,-1.0356921245038508,-0.027895376086235,-0.4901337623596191,0.1410207748413086,walking
1761225863498570800,-0.0269131596331484,0.3621352760583162,-1.3996078542381525,0.0563071183860302,-0.4501629173755646,0.1415957510471344,walking
1761225863508583700,-0.1669358714979142,0.3852694834083318,-1.7057541165709496,0.1596594303846359,-0.3788080513477325,0.1196813732385635,walking
1761225863518596900,-0.3557904736088588,0.3131576023995876,-1.797328822940588,0.2507581710815429,-0.2841928601264953,0.0791816189885139,walking
1761225863528609800,-0.5007985544044524,0.1356406425893306,-1.580590444332361,0.3105970919132232,-0.1912631690502166,0.0343904718756675,walking
1761225863538623000,-0.4965840785145759,-0.062089668688178,-1.031296519893408,0.3164957463741302,-0.1616666615009308,-0.0071958531625568,walking
1761225863548636700,-0.4246319911774248,-0.2956675384163856,-0.3136176211267709,0.2549612820148468,-0.2242358028888702,-0.0749887898564338,walking
1761225863558649900,-0.4132906590823084,-0.5603443107634782,0.4626245257675647,0.1509760171175003,-0.3517301082611084,-0.159230425953865,walking
1761225863568662800,-0.3976006667910143,-0.720218646377325,0.9309019627302884,0.0366176217794418,-0.4690693616867065,-0.2412590980529785,walking
1761225863578675700,-0.3884233808619901,-0.7077139695912599,1.0199743308901783,-0.0764527395367622,-0.5233193039894104,-0.3029389679431915,walking
1761225863588689000,-0.3649185501012951,-0.5899281326442957,0.790270087724924,-0.1680989563465118,-0.492781400680542,-0.3372016251087188,walking
1761225863598701800,-0.3594738748293369,-0.3448790208309888,0.4065618622839451,-0.2256232351064682,-0.3788183331489563,-0.3448270559310913,walking
1761225863608714800,-0.3273303585283458,-0.0640571693688631,-0.0469032054722309,-0.2447361052036285,-0.2243129312992096,-0.3296337425708771,walking
1761225863618724000,-0.2789612634883262,0.1358329502910375,-0.4484615603804588,-0.2201295644044876,-0.0887388586997985,-0.3041635453701019,walking
1761225863628737000,-0.1697721178371459,0.2461953592389822,-0.5497077659368514,-0.1616353988647461,-0.0477633439004421,-0.2803622186183929,walking
1761225863638751000,-0.0277370249703526,0.2536234634131193,-0.3962146557927131,-0.0970031321048736,-0.1055267751216888,-0.2625704407691955,walking
1761225863648764200,0.084188258513296,0.1822492490291595,-0.0968622913837432,-0.0361026376485824,-0.232243537902832,-0.2556367218494415,walking
1761225863658777000,0.0470731734779663,0.0454863244116306,0.264914672756195,-0.0099567882716655,-0.383734792470932,-0.2562867999076843,walking
1761225863668790000,0.0058624074936844,-0.0896200651705265,0.4927987147569656,0.0034548048861324,-0.5135197043418884,-0.2484792917966842,walking
1761225863678803000,0.0779875133101828,-0.1185854628920555,0.4930787007421255,0.0005455678328871,-0.5970159769058228,-0.2166057825088501,walking
1761225863688816000,0.0611262487498112,-0.0281307004630565,0.3903168299257755,-0.0169107913970947,-0.6179391741752625,-0.1876104325056076,walking
1761225863698829000,-0.0628952129174023,0.0627677140802144,0.275478152346611,-0.0518016628921031,-0.5841058492660522,-0.1713273376226425,walking
1761225863708842000,-0.2454749908088706,0.041527942174673,0.1508650997281074,-0.094983123242855,-0.5146892666816711,-0.1651064753532409,walking
1761225863718855200,-0.445389605589211,0.0162730894088745,0.1145189441055059,-0.1508109718561172,-0.4490092992782593,-0.1760938763618469,walking
1761225863728868000,-0.592893887114711,0.002388940963149,0.1255213996350765,-0.1843456029891967,-0.394610196352005,-0.2115442156791687,walking
1761225863738882000,-0.8089311682488769,-0.0042459670066833,-0.073553896510601,-0.1944350004196167,-0.3435797691345215,-0.2601543664932251,walking
1761225863748895000,-1.0431342572033404,0.0812935508519411,-0.3020931875497102,-0.184900626540184,-0.2732131481170654,-0.3273373544216156,walking
1761225863758908200,-1.1825680084653198,0.1331014795005321,-0.461214074447751,-0.1675866246223449,-0.2010872960090637,-0.3851655125617981,walking
1761225863768921000,-1.150545268999785,0.2407429390519857,-0.4526701179862022,-0.1458479017019271,-0.1762126982212066,-0.426567941904068,walking
1761225863778934000,-0.9481227082528172,0.3327349940508604,-0.4305114776700735,-0.1095948070287704,-0.1530282944440841,-0.4336207807064056,walking
1761225863788947200,-0.7542949573718011,0.442668363931775,-0.4777496141850948,-0.0699086189270019,-0.1144767180085182,-0.4270740151405334,walking
1761225863798959900,-0.6038339814651758,0.5107388605952262,-0.4244692748963832,-0.0402415320277214,-0.0863974094390869,-0.414925754070282,walking
1761225863808973000,-0.4932311878900974,0.5504577075213194,-0.3541185583412647,0.0048499582335352,-0.0637659355998039,-0.3884848654270172,walking
1761225863818986000,-0.3573529371526092,0.6074672964662313,-0.268659704503417,0.0305430721491575,-0.0437472164630889,-0.3494850099086761,walking
1761225863829000000,-0.2984531140143051,0.6452548830688,-0.0384147785902023,0.0289965886622667,-0.0791734233498573,-0.3193138539791107,walking
1761225863839013000,-0.2134173809593543,0.6486918717801571,0.3208627699494362,0.0053866021335124,-0.1399374306201934,-0.2727724611759186,walking
1761225863849026000,-0.192484026388172,0.6640080988556146,0.4743295766085386,-0.02455810084939,-0.1686826795339584,-0.2388646751642227,walking
1761225863859039000,-0.2572513350540772,0.5945224746972322,0.3409942883521318,-0.0426329746842384,-0.1283666789531707,-0.2071885019540786,walking
1761225863869052000,-0.3640544806178659,0.5968120469391346,0.1257388417780399,-0.0568616688251495,-0.0631659924983978,-0.1855155974626541,walking
1761225863879065000,-0.5081943637441844,0.6125245798557997,0.1474234348416328,-0.0831718370318412,-0.0453395843505859,-0.1832614988088607,walking
1761225863889078000,-0.6239755828704685,0.5014806183844804,0.3868184664160013,-0.1120151206851005,-0.0467483736574649,-0.1855850666761398,walking
1761225863899091000,-0.5810022641930729,0.338093890735507,0.5531020845502614,-0.1394968181848526,-0.0627848654985427,-0.1761196702718734,walking
1761225863909104000,-0.487216274982132,0.2722363939464092,0.7061421902298927,-0.1635609418153762,-0.1214517056941986,-0.1486590802669525,walking
1761225863919117000,-0.3808568911304697,0.2520353174388408,0.8278811487168073,-0.1882377862930297,-0.1951195299625396,-0.1153887510299682,walking
1761225863929131000,-0.331094533367455,0.2243441774368286,0.8333277236849069,-0.2095617353916168,-0.2474221140146255,-0.0789606571197509,walking
1761225863939144200,-0.33170280145891,0.1713116754293441,0.6536983017653226,-0.2205994725227356,-0.2656884789466858,-0.0416974388062953,walking
1761225863949157000,-0.3898750775076449,0.1349222651869058,0.4497697203695774,-0.2288978993892669,-0.2609041333198547,0.0016204389976337,walking
1761225863959170000,-0.4754974513441324,0.1323608902662992,0.3222743903130293,-0.2270808219909668,-0.2480176389217376,0.0376516766846179,walking
1761225863969183000,-0.5521471584456041,0.1104775597602129,0.2655710908383131,-0.223931685090065,-0.2441909313201904,0.0631109699606895,walking
1761225863979196200,-0.7326315532267094,0.0250987854212522,0.2508382166087627,-0.2145171463489532,-0.2364592403173446,0.0589833408594131,walking
1761225863989208800,-0.963884998595342,-0.1204752221614122,0.2222223629772663,-0.1923893988132476,-0.1985421776771545,0.0322665311396122,walking
1761225863999222000,-1.1605835556723176,-0.1989373489797115,0.1604816538572311,-0.1653753668069839,-0.1393984407186508,0.000885973975528,walking
1761225864009235200,-1.2225110926013438,-0.2643991244494915,0.0465285269409418,-0.1180305033922195,-0.0851585939526557,-0.0266619883477687,walking
1761225864019249000,-1.2386824021361766,-0.2976636806696653,0.0096820205807685,-0.0680477619171142,-0.0245919246226549,-0.0550603419542312,walking
1761225864029262000,-1.1520555274322628,-0.2833662752479314,0.1047206036686897,-0.0361334085464477,0.0297618489712476,-0.0704904422163963,walking
1761225864039275000,-0.9778252611424774,-0.3516401855289935,0.35213176843822,-0.0133681772276759,0.0469845123589038,-0.0744364485144615,walking
1761225864049288000,-0.7488404182929546,-0.4474766409963369,0.653022594460845,-0.0085216015577316,0.032417606562376,-0.0606971457600593,walking
1761225864059301000,-0.5071754324926063,-0.530010547298193,0.918200302067399,-0.0129736084491014,-0.007280537392944,-0.0299948938190937,walking
1761225864069314000,-0.2776700911666266,-0.6493734243035316,1.1146247914433478,-0.0425985194742679,-0.0528642795979976,0.013769082725048,walking
1761225864079327200,-0.1013548535626381,-0.8366326104491949,1.2174264097481966,-0.0815395191311836,-0.1020637899637222,0.0605283342301845,walking
1761225864089340000,-0.0093291337561793,-1.008977720579505,1.2375590971946715,-0.1402186155319214,-0.1360777467489242,0.1049186363816261,walking
1761225864099353000,-0.0314284085678868,-1.1412386576026678,1.133334168088436,-0.2016050070524215,-0.1407180279493332,0.1376904249191284,walking
1761225864109366000,-0.1543676462226547,-1.193281564050913,0.9157079007297754,-0.2489507347345352,-0.1352250725030899,0.1545377820730209,walking
1761225864119380000,-0.3271034909699112,-1.219904198038578,0.603155863007903,-0.2742931246757507,-0.1565255671739578,0.1589623540639877,walking
1761225864129393200,-0.476183533912152,-1.1415338411569596,0.2460480597227811,-0.2541349828243255,-0.2053902149200439,0.1732596307992935,walking
1761225864139406000,-0.5655146260734647,-0.9599211364656686,-0.1722445723652839,-0.175761878490448,-0.2453690469264984,0.198248878121376,walking
1761225864149419000,-0.6822019271939993,-0.7939291947543621,-0.7964601745367049,-0.031452503055334,-0.2212404459714889,0.2214291244745254,walking
1761225864159432000,-0.9391747010350228,-0.6324386561155318,-1.4859306314289569,0.1627667695283889,-0.1577480286359787,0.2200147211551666,walking
1761225864169445000,-1.2465472902923822,-0.4395008398115634,-1.9192548284322024,0.3682528436183929,-0.0413810238242149,0.1887105107307434,walking
1761225864179458000,-1.455926976700872,-0.2771288421630859,-1.9444769479721784,0.538922905921936,0.0627288669347763,0.1402609497308731,walking
1761225864189471000,-1.4536803668178615,-0.2271826157331466,-1.5020359630554914,0.657859206199646,0.1245448142290115,0.0903639569878578,walking
1761225864199484200,-1.373990597900748,-0.1952963621288538,-1.0321247874110937,0.7358317375183105,0.1797747910022735,0.0478838682174682,walking
1761225864209497900,-1.171973110823333,-0.1555015273571014,-0.5535258629202843,0.7608985304832458,0.2312453091144561,0.0114003056660294,walking
1761225864219511000,-0.9096435591895132,-0.1555336760610342,-0.0049783729344606,0.7367455363273621,0.2416345626115799,-0.0069989417679607,walking
1761225864229524200,-0.542142299118638,-0.1510965703964233,0.490287608718872,0.6809512972831726,0.2458621859550476,-0.000317494967021,walking
1761225864239537000,-0.1429104874618351,-0.1597469098418951,0.8072048559129238,0.5879782438278198,0.3014311790466308,0.0314785167574882,walking
1761225864249550000,0.1499819967506453,-0.2101841346591711,0.9890531229257584,0.4653467237949371,0.4041130840778351,0.0714698955416679,walking
1761225864259563000,0.3328251930849626,-0.3187286805301904,1.1247685843169688,0.3465620279312134,0.5300726294517517,0.1205516830086708,walking
1761225864269576200,0.4975630065493285,-0.4551484907984733,1.196651332744956,0.2250535786151886,0.6064177751541138,0.1657389551401138,walking
1761225864279588900,0.6061829557441175,-0.6052817691206932,1.4020318665146827,0.1026746779680252,0.5830134153366089,0.1956007182598114,walking
1761225864289602000,0.6508852171059697,-0.7645470329254865,1.6155793401271104,-0.0063467351719737,0.4705027043819427,0.218007355928421,walking
1761225864299615200,0.6802576612584292,-0.8795967229068279,1.6364450180232524,-0.089731641113758,0.2998130023479461,0.2234726995229721,walking
1761225864309629000,0.662812532395497,-0.9373790497899056,1.4595546656787397,-0.1483452469110489,0.1168328076601028,0.2262112349271774,walking
1761225864319642000,0.5556275479072704,-0.7681763293385505,1.0217162061214446,-0.1815125197172165,6.11837022006e-05,0.2163908332586288,walking
1761225864329655000,0.2913749009900726,-0.4987000477552413,0.42374797488451,-0.1943242251873016,-0.0184489600360393,0.1921780705451965,walking
1761225864339668000,-0.0441236577562987,-0.2427244682580232,-0.1581441508203744,-0.1985035240650177,0.032653372734785,0.1833449006080627,walking
1761225864349681200,-0.2077225120523013,0.1066606318205595,-0.6612076544821262,-0.1792254000902176,0.1557003110647201,0.1979721486568451,walking
1761225864359694000,-0.1913209008929319,0.4024497507899999,-1.0906547177910804,-0.1420591175556183,0.3032024204730987,0.2193951457738876,walking
1761225864369707000,-0.1507430807836353,0.6009276655644178,-1.2766717949211597,-0.0976836383342742,0.4222530424594879,0.250580370426178,walking
1761225864379720000,-0.1587236312087625,0.7595739206880331,-1.2452958289265632,-0.0390293858945369,0.4839054942131042,0.2774202525615692,walking
1761225864389733000,-0.0378216715352609,0.9326865080595016,-1.1105237858653068,0.0311175305396318,0.5052573084831238,0.304069846868515,walking
1761225864399747000,0.146535253830254,1.0624468604385853,-1.0894809978365898,0.123953990638256,0.5299855470657349,0.329183965921402,walking
1761225864409760000,0.3411259153751656,1.256941258534789,-1.0911129829525947,0.2203086763620376,0.5472446084022522,0.3584640622138977,walking
1761225864419773200,0.6013173590017482,1.464141993469,-0.8918541469335556,0.3123600482940674,0.567048966884613,0.4092324376106262,walking
1761225864429785900,0.906771437819302,1.6540174995929002,-0.6107324357420205,0.4033084213733673,0.5471487641334534,0.4832528829574585,walking
1761225864439799000,1.268657415291667,1.6831611764907837,-0.2931014873206615,0.4863830804824829,0.4961103498935699,0.5542159676551819,walking
1761225864449812000,1.5168993317969142,1.5327227777421473,-0.0519108045011758,0.547415554523468,0.4510074555873871,0.611902117729187,walking
1761225864459825200,1.6187416035503148,1.3405483470261097,0.2914841152518987,0.5542409420013428,0.3994902074337005,0.6640886068344116,walking
1761225864469838000,1.62979140535295,1.0625023900181054,0.8014122439861298,0.5027540326118469,0.3509902954101562,0.7017669677734375,walking
1761225864479851000,1.5495089312396944,0.7192611995220184,1.217517010641098,0.3995514512062073,0.3004432320594787,0.7223854064941406,walking
1761225864489865000,1.3563454894863067,0.3691530458658933,1.6081903989195825,0.2455608546733856,0.2422003448009491,0.7040979862213135,walking
1761225864499878000,1.146349351679906,-0.0410223307400941,1.8961025009036063,0.0524566397070884,0.195727914571762,0.6467108130455017,walking
1761225864509891000,0.9743067316275088,-0.4119645981103181,1.9357804312974212,-0.134767472743988,0.1910564601421356,0.5846476554870605,walking
1761225864519904300,0.8725666781395673,-0.6305775384187698,1.7305249852120874,-0.2979915738105774,0.1715559959411621,0.5201607942581177,walking
1761225864529917000,0.8128769832652062,-0.6558464197099209,1.5001029491662978,-0.4084364175796509,0.1102727055549621,0.4818175137042999,walking
1761225864539930000,0.7153415418602526,-0.5765215385824441,0.9766519065141678,-0.4393280148506164,0.0795965567231178,0.4409904479980469,walking
1761225864549943000,0.4654026852440088,-0.4330290134489536,0.1322533382385969,-0.4018603563308716,0.0897996723651886,0.3762644529342651,walking
1761225864559956000,0.1411658722842112,-0.2694669292330742,-0.5052478619635105,-0.3429275751113891,0.1070191413164138,0.2875739932060241,walking
1761225864569969000,-0.0957778936805203,-0.1495294672101736,-0.8676327288687229,-0.2776899337768554,0.1387749314308166,0.2042972296476364,walking
1761225864579982000,-0.1804295227887108,-0.1496001943588256,-1.125572301915288,-0.2057965844869613,0.2403148710727691,0.1286237686872482,walking
1761225864589996000,-0.2427597587671131,-0.0970388169944286,-1.3445400470107791,-0.1297407150268554,0.3983897566795349,0.0686829835176467,walking
1761225864600009000,-0.288298178692162,0.036097149297595,-1.3305723119348287,-0.0658134073019027,0.526965320110321,0.0225602332502603,walking
1761225864610022100,-0.2283297764742747,0.1493143631547689,-0.9363064521223308,-0.0233419816941022,0.5983566045761108,-0.0070150657556951,walking
1761225864620035000,-0.0232701086893677,0.1116974569439887,-0.4293476945877075,-0.0008771528955549,0.6187066435813904,-0.0319925881922245,walking
1761225864630048300,0.1659181092901155,-0.0435322677344083,0.0136544313430786,0.0137666417285799,0.6195602416992188,-0.0551718436181545,walking
1761225864640061200,0.3325058614701032,-0.1205307517409324,0.2888186954349279,0.0158236660063266,0.6073062419891357,-0.0675001516938209,walking
1761225864650074400,0.4470930850388482,-0.0832470230072736,0.5757932243078947,0.0139089077711105,0.5840990543365479,-0.0642251148819923,walking
1761225864660087000,0.5842563706181944,0.0135626614063978,0.8122732452183962,0.0107203051447868,0.5342497229576111,-0.0432109124958515,walking
1761225864670100200,0.7354279059469699,0.0543412465184926,1.0264087478518484,0.0030862756539136,0.447209358215332,-0.013464231044054,walking
1761225864680114200,0.8167566742427647,0.0431669415533542,1.2188123111486435,-0.01007373444736,0.3171797096729278,0.0170635841786861,walking
1761225864690127000,0.8395025398623198,0.0117377840667963,1.247879415678978,-0.0171153824776411,0.1946697384119033,0.0490624904632568,walking
1761225864700140300,0.7482615224264562,-0.0020247838258743,1.1079577347695826,-0.0285256952047348,0.0879986956715583,0.073592334985733,walking
1761225864710153200,0.6304809461764991,0.0471019429147243,0.9778922619640826,-0.0508324205875396,-0.0139013677835464,0.087200753390789,walking
1761225864720166100,0.5075504763500764,0.1124696103602647,0.8829355119407176,-0.0763918459415435,-0.1153369173407554,0.1041951850056648,walking
1761225864730179300,0.373888842216134,0.1970242088347673,0.6826058318197726,-0.0957049578428268,-0.1750866323709488,0.1207141429185867,walking
1761225864740192300,0.2023716708099469,0.3057131316125392,0.3740659523487091,-0.1091190353035926,-0.1936382055282592,0.1251749396324157,walking
1761225864750205200,-0.015429039800167,0.3811971194028854,0.0663619391798973,-0.129289761185646,-0.1735660880804062,0.1142167150974273,walking
1761225864760218000,-0.2677213824736885,0.4050391827613115,-0.2613110953062773,-0.1210390254855156,-0.0917457863688469,0.0894810035824775,walking
1761225864770231300,-0.4326871777413412,0.4425935451298952,-0.7411608966410159,-0.0773223936557769,0.055481594055891,0.0659475624561309,walking
1761225864780245200,-0.4821246143989264,0.5179828403741121,-0.997132969006896,-0.0292925480753183,0.1496738791465759,0.0333731025457382,walking
1761225864790258200,-0.4089980764549225,0.4987111536711454,-0.7894991033524275,0.0207811407744884,0.119594894349575,0.0084342937916517,walking
1761225864800271400,-0.1865657787877135,0.409230789232254,-0.3370405822902917,0.061639629304409,0.0093565369024872,-0.0031453967094421,walking
1761225864810284000,0.1186861285212449,0.3129249626874923,0.0049438861429691,0.1028255820274353,-0.1139645874500274,-0.0007456088205799,walking
1761225864820297200,0.2708352219115942,0.2086766527056694,0.1354711312413215,0.1278808712959289,-0.2409435659646988,0.0030304873362183,walking
1761225864830310100,0.2500845852298662,0.1442401286303997,0.2021989811241626,0.1418197304010391,-0.3468269109725952,-0.0081050470471382,walking
1761225864840323300,0.0839505864330567,0.0474836357086896,0.1972568485468626,0.1432844698429107,-0.4144291281700134,-0.0290087312459945,walking
1761225864850336300,-0.0281545379963703,-0.0501572388321161,0.1859562868535518,0.1169881150126457,-0.4701913893222809,-0.0549188107252121,walking
1761225864860349200,-0.0755285210518166,-0.1938981857687234,0.2493845106691121,0.0570073314011096,-0.501074492931366,-0.086183525621891,walking
1761225864870363100,-0.0883389393188059,-0.3820382464021444,0.2393476853013038,-0.0159432049840688,-0.493887722492218,-0.1090617626905441,walking
1761225864880376000,-0.0706746878124773,-0.4891255792021751,0.1898614775985479,-0.1053292751312255,-0.4912426769733429,-0.1281302571296692,walking
1761225864890389200,-0.066571526809968,-0.5791442883014679,0.1949497406482696,-0.2090512365102768,-0.5050037503242493,-0.1430178582668304,walking
1761225864900402400,-0.1217194866014644,-0.6965753204613924,0.2105588131904602,-0.3200259804725647,-0.5347392559051514,-0.1682787388563156,walking
1761225864910415000,-0.2468963105825707,-0.7953630269497632,0.1134141977339982,-0.4224388897418976,-0.5917481780052185,-0.2085978984832763,walking
1761225864920428300,-0.413936555770412,-0.8313099541217088,-0.1007458548188209,-0.4917282164096832,-0.6451778411865234,-0.2551883161067962,walking
1761225864930441200,-0.5956078222485259,-0.7837211044728756,-0.5668330882608891,-0.5151163935661316,-0.6686761379241943,-0.314246118068695,walking
1761225864940454100,-0.8832310608211904,-0.6558452506661415,-1.1517273183912038,-0.4815019965171814,-0.6311705708503723,-0.3768847286701202,walking
1761225864950467000,-1.1265602900393306,-0.4356850809156894,-1.649756335017085,-0.4279311001300812,-0.5582534074783325,-0.4293383061885834,walking
1761225864960480300,-1.2472357109479606,-0.1254506724864244,-1.8547341332048175,-0.3580699861049652,-0.4827298820018768,-0.4663772881031036,walking
1761225864970494200,-1.2343301982760428,0.1123416000664234,-1.815540186935663,-0.2807848751544952,-0.4195891916751861,-0.4844054579734802,walking
1761225864980507100,-1.109731904835254,0.3230623258203268,-1.6469091288924216,-0.1972588002681732,-0.3687582314014435,-0.4852214455604553,walking
1761225864990520300,-0.9443849830292164,0.4962725283473729,-1.4722142407655716,-0.1037108749151229,-0.3138777613639831,-0.4691110253334045,walking
1761225865000533000,-0.8051840176098048,0.6009522154837846,-1.3024971410512924,-0.0202759020030498,-0.2730853259563446,-0.4504329264163971,walking
1761225865010546200,-0.7296151280149817,0.7192232055991887,-0.9898638547867536,0.0576219037175178,-0.2532234191894531,-0.4384028613567352,walking
1761225865020559400,-0.6610030718207359,0.7861533000558615,-0.6509767678469419,0.1240065172314643,-0.2430206090211868,-0.4271502196788788,walking
1761225865030572300,-0.5427391325006261,0.8412649464249611,-0.3127706489086151,0.1724328696727752,-0.234629675745964,-0.4005030393600464,walking
1761225865040585200,-0.4484873158762231,0.8853075017690658,-0.0323696532070636,0.2108654826879501,-0.224545881152153,-0.373706042766571,walking
1761225865050598100,-0.3698477866644039,0.8525164082795381,0.1875947017103433,0.236091211438179,-0.1843720972537994,-0.3463708460330963,walking
1761225865060612000,-0.3654927332600578,0.775810769739747,0.3188707193493842,0.2507244944572449,-0.1154055446386337,-0.3326544761657715,walking
1761225865070625300,-0.4069069493945688,0.6383306367635726,0.4541963046401739,0.2609958946704864,-0.0615209117531776,-0.3303787410259247,walking
1761225865080638200,-0.4526940103184431,0.5148883814901113,0.6198626676589251,0.2679009437561035,-0.0234020240604877,-0.3383301198482513,walking
1761225865090651400,-0.4218503245696425,0.4629366604566574,0.7832990796685219,0.2580707669258117,-0.017111649736762,-0.3610290884971618,walking
1761225865100664000,-0.3951438116908073,0.3135632605910301,1.0470148980289695,0.222424104809761,-0.0671963915228843,-0.3933579921722412,walking
1761225865110677200,-0.3475096250629052,0.1663309644073247,1.3196990357428788,0.165050595998764,-0.1381987482309341,-0.4281762242317199,walking
1761225865120690200,-0.2973241830496117,0.0681716189503669,1.4465624976366758,0.0835474878549575,-0.2193844020366668,-0.4634106457233429,walking
1761225865130703000,-0.2553589454362169,0.0282674785852432,1.5108125592291357,-0.0296254605054855,-0.2915554046630859,-0.4874948263168335,walking
1761225865140716000,-0.2509888588595204,0.0814794288128614,1.5144605603426693,-0.1544438302516937,-0.3298287689685821,-0.4940978586673736,walking
1761225865150729200,-0.213199299495574,0.2123936274021863,1.398424197411537,-0.2822620570659637,-0.3259799778461456,-0.4724748730659485,walking
1761225865160743200,-0.199931492849905,0.3932195656299591,1.0792518647670746,-0.3995212912559509,-0.2907756567001343,-0.4321319758892059,walking
1761225865170756000,-0.2472993384255096,0.5291191514164209,0.757009623157978,-0.4951406121253967,-0.2427497655153274,-0.3902041912078857,walking
1761225865180769300,-0.2903924475576728,0.594291588550806,0.4254734835028648,-0.5518254637718201,-0.2036726772785186,-0.3410803079605102,walking
1761225865190782200,-0.2283588747045956,0.6456611257821321,0.0102390699416399,-0.5571552515029907,-0.1757484823465347,-0.2679212689399719,walking
1761225865200795100,-0.1572433295231312,0.7097218022823333,-0.4114858746826648,-0.5149129629135132,-0.166445791721344,-0.1739921271800995,walking
1761225865210808300,0.0340420251323841,0.7483896788507699,-0.7349006672024726,-0.4233731031417846,-0.1704671084880828,-0.0489859357476234,walking
1761225865220821200,0.1767551816575229,0.77127312631011,-0.93921678661108,-0.2973541915416717,-0.2065119296312332,0.0826525166630745,walking
1761225865230834200,0.2152592824989929,0.7021013904064893,-1.009475148707628,-0.1446064859628677,-0.254075288772583,0.2051335722208023,walking
1761225865240847000,0.0226972407048568,0.5199222840040922,-1.0086825370252133,0.0045222695916891,-0.2926772832870483,0.2828544676303863,walking
1761225865250860300,-0.3300247852440923,0.2901251018583774,-0.8943880493253469,0.1443176120519638,-0.30742347240448,0.3143866062164306,walking
1761225865260874200,-0.6902461174398661,0.0741436790972948,-0.6386480321496725,0.253033697605133,-0.291885495185852,0.3128733932971954,walking
1761225865270887200,-0.9160493345785884,-0.1195230360031127,-0.2829705539286136,0.3207734823226928,-0.2738688290119171,0.29688361287117,walking
1761225865280900400,-0.973222954978794,-0.3770113581508398,0.1181698678284883,0.3352184295654297,-0.2346013039350509,0.2739311754703522,walking
1761225865290913000,-0.988083328045532,-0.6233464181214571,0.4675099597215652,0.3113255202770233,-0.1822592169046402,0.2266899496316909,walking
1761225865300926200,-1.045780533928424,-0.859420780840516,0.825796743658185,0.2394705116748809,-0.1185044795274734,0.160914659500122,walking
1761225865310939400,-1.1243921522200109,-1.0289420657217505,1.1827426343798637,0.1353227347135543,-0.0513215102255344,0.0822730436921119,walking
1761225865320952000,-1.1365123597331344,-1.119792549470067,1.4112193815767764,0.0182637684047222,0.006340985186398,0.0005739193875342,walking
1761225865330965200,-1.1179465562772004,-1.2109212656378745,1.5235224031984804,-0.0735790207982063,0.0676204636693,-0.0806808397173881,walking
1761225865340978200,-1.1052481835499406,-1.1933154663205146,1.4312836799621582,-0.1366274952888488,0.1215803697705268,-0.14978988468647,walking
1761225865350992100,-1.0530050783544778,-1.028304936861992,1.3414537714332342,-0.171235591173172,0.1360502392053604,-0.1976960152387619,walking
1761225865361005300,-0.9553671264231204,-0.8109037104308605,1.2967746717512607,-0.1818472295999527,0.1129073724150657,-0.218998908996582,walking
1761225865371018200,-0.7552939052812755,-0.6014385376960039,1.2309405558377504,-0.1603600233793258,0.0806979984045028,-0.2097673714160919,walking
1761225865381031200,-0.5503162532240152,-0.4119470624536275,1.0734943241536616,-0.1205478906631469,0.0458324290812015,-0.1795599311590194,walking
1761225865391044000,-0.477958325032331,-0.281669992724061,0.8751496803700923,-0.0674150213599205,0.0401768013834953,-0.146431416273117,walking
1761225865401057300,-0.4428840525090694,-0.1324631815969943,0.6868067906409502,-0.0106073981150984,0.063180923461914,-0.1069934666156768,walking
1761225865411070200,-0.4617584835227578,-0.0480453612446784,0.6183779820591211,0.0197436865419149,0.0903650447726249,-0.0680003464221954,walking
1761225865421083100,-0.4927217039979994,-0.0956301192402839,0.6689987467497587,0.0254484433680772,0.1370390802621841,-0.0401844307780265,walking
1761225865431096000,-0.4968433139726519,-0.1748743363469839,0.7380442259252071,0.0174055602401494,0.1902835667133331,-0.0163558907806873,walking
1761225865441109200,-0.4783093669597059,-0.2140478243499994,0.7872463559895754,-0.0007071311119943,0.2337436825037002,0.0045469943434,walking
1761225865451123200,-0.4410822637841105,-0.2363379820913076,0.8711305078566074,-0.0253658723086118,0.2610493302345276,0.0260096751153469,walking
1761225865461136100,-0.3557841534659266,-0.3125210580617189,0.8923118275731802,-0.0601163953542709,0.2584311664104461,0.0492896996438503,walking
1761225865471149300,-0.2117634762724861,-0.3359679846227169,0.911463687288761,-0.0853242799639701,0.2172872126102447,0.0826324746012687,walking
1761225865481162200,-0.099256310380809,-0.3565682895809411,0.7650725181043148,-0.0740343406796455,0.1728507727384567,0.117353968322277,walking
1761225865491175200,-0.0720668728232383,-0.380198171493411,0.3323381036877632,-0.0374196991324424,0.1540443450212478,0.1478157490491867,walking
1761225865501188400,-0.1104721529327333,-0.336978622969985,-0.0903249985694885,0.0133755700662732,0.1227213144302368,0.1705716699361801,walking
1761225865511201000,-0.1194743745557963,-0.2990682867705821,-0.3590905015349387,0.0694954767823219,0.0817053690552711,0.1958111822605133,walking
1761225865521214200,-0.0326142390852794,-0.2251613390386104,-0.599789601445198,0.1343591660261154,0.0706183686852455,0.2394060641527176,walking
1761225865531227100,0.0542236845534294,-0.1354360599279403,-0.9273311185061932,0.2008179426193237,0.1001372784376144,0.2966586053371429,walking
1761225865541240300,0.0325667832143604,-0.0479278723448514,-1.2965870402246713,0.2784280478954315,0.2184676527976989,0.3506443500518799,walking
1761225865551254300,-0.0918471301028504,-0.0540074845194816,-1.6908078918516636,0.3663375973701477,0.3960275053977966,0.3777443766593933,walking
1761225865561267200,-0.1774179564151912,-0.0906008929014206,-1.8835808729827404,0.4459429383277893,0.5649715065956116,0.3915885686874389,walking
1761225865571280100,-0.1562961848661303,-0.1853898851424455,-1.6856231826901436,0.4963443577289581,0.6589341759681702,0.393070787191391,walking
1761225865581293000,0.0745650463145226,-0.3449807276397943,-1.1896131046712397,0.5177825689315796,0.652910053730011,0.4051088094711303,walking
1761225865591306200,0.290859699743241,-0.5210375517696142,-0.7087327912449837,0.5193967819213867,0.6363397240638733,0.4191094636917114,walking
1761225865601319400,0.4678384610235691,-0.6824304752528667,-0.4431956026762724,0.4984734058380127,0.623572826385498,0.4280515611171722,walking
1761225865611332000,0.5569408224629238,-0.7544809814631939,-0.1986123548090458,0.4469910264015198,0.5741438865661621,0.4358600676059723,walking
1761225865621344500,0.6535391656808555,-0.8358534427702426,0.1148521215826273,0.3722422122955322,0.4613747000694275,0.4295291900634765,walking
1761225865631357400,0.7784418488956988,-0.9651344871997832,0.3598685001701116,0.2807666361331939,0.3282147943973541,0.4171854257583618,walking
1761225865641371400,0.8297720039647072,-0.9685913496553896,0.3903869725525379,0.1928002834320068,0.2147084772586822,0.3956585824489593,walking
1761225865651384600,0.7869976419255137,-0.8672031052798033,0.2410147417306899,0.0988826304674148,0.1473229229450225,0.3767667710781097,walking
1761225865661397500,0.6013238983403891,-0.6435474946290254,-0.0169932203769683,-0.0046903695911169,0.1647205650806427,0.3676606118679046,walking
1761225865671410700,0.3820772997708991,-0.3512175762027502,-0.3279764013469219,-0.0924421846866607,0.258386880159378,0.3601366877555847,walking
1761225865681423400,0.170520050127618,-0.0636351445645093,-0.7540905208408832,-0.1577239781618118,0.3836212456226349,0.3479580581188202,walking
1761225865691436500,0.048368199990876,0.2496469609975814,-1.0522779331237078,-0.1824379861354828,0.5179738998413086,0.3434502780437469,walking
1761225865701449700,-0.0153333974059671,0.5710410613447428,-1.302522275492549,-0.1559158265590667,0.6546161770820618,0.353785753250122,walking
1761225865711462400,0.0074718519843183,0.8985106822133063,-1.5400170264035462,-0.0664170235395431,0.7599207758903503,0.3941103219985962,walking
1761225865721475600,0.1123066383508965,1.210133330130577,-1.679055494737625,0.0726063773036003,0.8507036566734314,0.4570522904396057,walking
1761225865731488500,0.2659894989134743,1.438898831140995,-1.679424912571907,0.2323851883411407,0.9267809391021729,0.5185660123825073,walking
1761225865741502500,0.3644200259946286,1.507194953253865,-1.4626093770742417,0.3983917534351349,0.9701108336448668,0.5620623230934143,walking
1761225865751515600,0.3904103534281253,1.4228677337944506,-1.0710825868368148,0.5341491103172302,0.9799951314926147,0.5920703411102295,walking
1761225865761528600,0.4465599280102178,1.295778061929345,-0.4766232405036688,0.6220923066139221,0.9383949637413024,0.603247344493866,walking
1761225865771541500,0.5513937097297981,1.0852473057895895,0.200555305570364,0.6479158997535706,0.893200695514679,0.6145895719528198,walking
1761225865781554400,0.7318630530722439,0.8423743689715861,0.7802613194078206,0.6155793070793152,0.8362399339675903,0.6269831657409668,walking
1761225865791567600,0.9137330204602332,0.5655763661980628,1.291949443551898,0.5368209481239319,0.7600008249282837,0.6342740654945374,walking
1761225865801580500,1.0383492148838938,0.364241308426857,1.7092483884274958,0.4272606372833252,0.6804239749908447,0.6344362497329712,walking
1761225865811593500,1.1164370284970848,0.2450917819112539,2.0445324824392794,0.2916866540908813,0.5808625221252441,0.6234954595565796,walking
1761225865821606700,1.1642373289395125,0.1483697757810354,2.246058094346523,0.1527474075555801,0.4783084094524383,0.6073881387710571,walking
1761225865831619600,1.179427372352034,0.0464338343948125,2.224631859958172,0.0369180664420127,0.3816618621349334,0.5920063257217407,walking
1761225865841633500,1.1770480029348285,0.0264671511650085,2.056064514800906,-0.0723301246762275,0.2733193933963775,0.5833409428596497,walking
1761225865851646500,1.149107637412101,0.1141542024463415,1.9479291342526672,-0.1838775724172592,0.120653286576271,0.5799050331115723,walking
1761225865861659600,1.056362425958365,0.2001537390321493,1.914620738890767,-0.3001410663127899,-0.0585761219263076,0.5866063237190247,walking
1761225865871672600,0.9688291039340198,0.2143821708709001,1.6695429855048656,-0.3939698040485382,-0.1889311671257019,0.5970664620399475,walking
1761225865881685500,0.7672532962094992,0.1952203742831945,1.1336971561819311,-0.4699684381484985,-0.2197508662939071,0.5886455774307251,walking
1761225865891698700,0.4046864968661218,0.2065536692023277,0.4779015898764133,-0.5179704427719116,-0.1708909720182418,0.5551460981369019,walking
1761225865901711400,0.0185286497833207,0.2205985611677169,-0.2010229230821132,-0.5380262136459351,-0.0748344659805297,0.5014775991439819,walking
1761225865911724500,-0.2930031049801037,0.2836275565326214,-0.7062433125168085,-0.5229664444923401,0.0520782172679901,0.4369867444038391,walking
1761225865921737500,-0.5005010692952201,0.318559753704071,-1.1100929932326078,-0.4569692611694336,0.2054334133863449,0.3631673753261566,walking
1761225865931751400,-0.6655015522837638,0.3754916012376547,-1.4483704238414763,-0.3504749834537506,0.3622960150241852,0.2815351486206054,walking
1761225865941764600,-0.8119811304040253,0.3875193081617355,-1.6500281376957893,-0.2050868868827819,0.5057653188705444,0.1879931986331939,walking
1761225865951777500,-0.9045433865062892,0.3883545899420976,-1.7770716323316096,-0.0523466989398002,0.6158031225204468,0.0870154798030853,walking
1761225865961790500,-0.8194213634073734,0.4173825315058231,-1.5041379037708045,0.0664531886577606,0.6391100287437439,0.0007245321758091,walking
1761225865971803400,-0.5414973522786051,0.4271674279391765,-0.8988380144715309,0.1477521955966949,0.5990269184112549,-0.0375372804701328,walking
1761225865981816600,-0.1265903075082227,0.4424789788395166,-0.3113169429689645,0.2065768986940384,0.5285202264785767,-0.0278851855546236,walking
1761225865991829800,0.2187720033276826,0.4655056341618299,0.1234136137008666,0.235120415687561,0.4598236382007599,0.0042731668800115,walking
1761225866001842400,0.3993616120489314,0.4604582876443863,0.5528501556158065,0.227870762348175,0.372019499540329,0.0387413948774337,walking
1761225866011855600,0.4317734969625249,0.4073971440643072,0.9676035076618194,0.1830466091632843,0.259007841348648,0.0587424114346504,walking
1761225866021868500,0.3507267239458859,0.2903226702570915,1.2965204047292471,0.1157695725560188,0.1750474423170089,0.0626037269830703,walking
1761225866031882500,0.2253097162670455,0.1288707100629806,1.3572627504616974,0.0410971343517303,0.1358224302530288,0.0557302720844745,walking
1761225866041895700,0.0651487822641618,0.1257943713575601,1.2776117061197756,-0.0301751792430877,0.1127490773797035,0.0462400987744331,walking
1761225866051908600,-0.086148644466605,0.143085113376379,1.2566712094217538,-0.1062343493103981,0.0901646837592125,0.0195581670850515,walking
1761225866061921500,-0.2132256760458462,0.0830073690325021,1.28400053037405,-0.1848213076591491,0.0687725767493248,-0.0105794947594404,walking
1761225866071934500,-0.2761720894275233,-0.0153045366376638,1.1755682127058504,-0.2338046133518219,0.0665154382586479,-0.0377358570694923,walking
1761225866081947600,-0.2683392038447782,-0.056688686427474,0.7182032149016857,-0.2250766307115554,0.1150835081934928,-0.0577271431684494,walking
1761225866091960300,-0.2581642486479133,0.0368739788889884,0.2313999411672353,-0.196794256567955,0.1609024852514267,-0.0762035250663757,walking
1761225866101973500,-0.2454729267159476,0.1131932484596967,0.0505517911076545,-0.1526366472244262,0.1581405252218246,-0.0810837745666503,walking
1761225866111986700,-0.1319137127543799,0.0958405471205711,0.0744914696216583,-0.0929668769240379,0.1010936275124549,-0.070414200425148,walking
1761225866121999600,0.0821173796565271,0.0449918188929557,0.0876169086545705,-0.0188734736293554,0.0042110229842364,-0.0474636107683181,walking
1761225866132013600,0.2502762170781381,-0.0515828877210617,-0.0081564184486865,0.0653457790613174,-0.1088132262229919,-0.0204098504036664,walking
1761225866142026500,0.3177157771605998,-0.1041454341292381,-0.0156412212461233,0.1490819603204727,-0.25704026222229,0.0092063657939434,walking
1761225866152039400,0.3329432299740612,-0.1390858146071434,-0.0064256491333246,0.2134858071804046,-0.4098979830741882,0.0314306989312171,walking
1761225866162052600,0.2740002618137747,-0.2431330490589141,-0.0168926826119422,0.2402958422899246,-0.5668748021125793,0.0421134382486343,walking
1761225866172065500,0.1805966960491612,-0.383622300723195,-0.0671469520777463,0.2391519695520401,-0.6466588973999023,0.0402518175542354,walking
1761225866182078700,0.0509654864750802,-0.5636176333457231,-0.2862894692182541,0.2082300037145614,-0.6264351010322571,0.0231071878224611,walking
1761225866192091400,-0.0941052842931821,-0.7192015782892703,-0.4874772274732589,0.1467630714178085,-0.5734198093414307,-0.0038793692365288,walking
1761225866202104600,-0.1935449884168803,-0.8278869939357042,-0.4095464310526847,0.0587056465446949,-0.5501733422279358,-0.0426307581365108,walking
1761225866212117500,-0.2890225839765742,-0.9386299266338348,-0.2177583693057298,-0.0406973734498024,-0.5549957752227783,-0.0754915028810501,walking
1761225866222130400,-0.3128420701770111,-1.0266910719245672,-0.109337742075324,-0.1440996527671814,-0.6033419966697693,-0.112599991261959,walking
1761225866232144600,-0.4211614655226469,-1.0481675751954316,-0.0873123727500438,-0.2224979698657989,-0.653853714466095,-0.1711501330137252,walking
1761225866242157600,-0.6963751217141747,-1.055757591933012,-0.2812953141927719,-0.2763481438159942,-0.6799324154853821,-0.2596235275268554,walking
1761225866252170500,-1.0272362847171723,-0.9920704249203204,-0.5645160434901714,-0.3126308917999267,-0.6661979556083679,-0.3704186975955963,walking
1761225866262183400,-1.2652025986626745,-0.8351146071016788,-0.7947177147835492,-0.3366638123989105,-0.6131832003593445,-0.4727242887020111,walking
1761225866272196600,-1.3357143509984015,-0.5623837076365947,-0.9314122503399848,-0.33910071849823,-0.5204674005508423,-0.5505030751228333,walking
1761225866282209500,-1.28790776694566,-0.2927987049818039,-0.9897802681565284,-0.3126717805862427,-0.4108954071998596,-0.5956370234489441,walking
1761225866292222500,-1.129137885442376,-0.0732452689528465,-1.0787287176758051,-0.2558580338954925,-0.33791583776474,-0.5993184447288513,walking
1761225866302235600,-0.885435804323852,0.1499456467956304,-1.0526461819142103,-0.1792311519384384,-0.3164129257202148,-0.5732628703117371,walking
1761225866312248600,-0.5874024866241961,0.3257406051188707,-0.9506061956316232,-0.0887768939137458,-0.3173314332962036,-0.5163744688034058,walking
1761225866322261500,-0.3016682401359081,0.4807236615598201,-0.8388906185090541,0.0128626460209488,-0.3492883145809173,-0.4418288767337799,walking
1761225866332275700,-0.1597370460350066,0.5408294629544019,-0.6081529406428337,0.1019522920250892,-0.4048806726932525,-0.3644221425056457,walking
1761225866342288400,-0.066953438799642,0.4931815765947103,-0.385461206588149,0.1774776726961136,-0.4576972723007202,-0.3020232319831848,walking
1761225866352301600,-0.0705652726212516,0.4001642702013254,-0.2055214035451412,0.2269362211227417,-0.4912550151348114,-0.267204612493515,walking
1761225866362314500,-0.1555863195637241,0.2864385223001242,0.0685813687950372,0.2390631884336471,-0.5297901630401611,-0.2526419162750244,walking
1761225866372327700,-0.2728276743704453,0.1313473293095827,0.3452215506583452,0.2261325716972351,-0.5612633228302002,-0.2512958645820617,walking
1761225866382340400,-0.341611580000259,0.0178062903255224,0.5495534521579742,0.1927098929882049,-0.5797773599624634,-0.2564259171485901,walking
1761225866392353500,-0.396920940898545,-0.0379331325531005,0.6916793651133776,0.1490732282400131,-0.5947298407554626,-0.2767004072666168,walking
1761225866402366700,-0.578093171813339,-0.1052425817161798,0.7077198148101568,0.1017829477787017,-0.5928794741630554,-0.3215134143829345,walking
1761225866412379400,-0.7732203148551284,-0.1601245109826326,0.5785737949371338,0.047274749726057,-0.556423544883728,-0.3934705555438995,walking
1761225866422392600,-0.9583667466305196,-0.1622135922163725,0.4389958128988742,0.0028428363148123,-0.496500015258789,-0.4645604491233825,walking
1761225866432406500,-1.0445939544923604,-0.0500906033366918,0.2499737087339162,-0.0258210655301809,-0.409660667181015,-0.5282386541366577,walking
1761225866442419500,-1.0299442285016178,0.0570586887836456,0.0044750995874404,-0.0257694013416767,-0.3272209167480469,-0.5787769556045532,walking
1761225866452432600,-0.9788907714821398,0.1557704074263572,-0.1752080983459949,-0.0144778909161686,-0.2677854299545288,-0.616710901260376,walking
1761225866462445600,-0.9221055658776312,0.2276765367299318,-0.1956301241278648,0.0030995046254247,-0.246434599161148,-0.6474557518959045,walking
1761225866472458500,-0.7802805355649441,0.2924392240196466,-0.14961071575284,0.0204314012080431,-0.2346321642398834,-0.6570308208465576,walking
1761225866482471400,-0.5829920497708022,0.3409223921597004,-0.0708200876325368,0.028201438486576,-0.2272096574306488,-0.6507020592689514,walking
1761225866492484600,-0.4322539739558473,0.382576006540656,0.036742461463809,0.0112433061003685,-0.2404351532459259,-0.6274047493934631,walking
1761225866502497500,-0.2947418384062126,0.4005658367395401,0.2421276714086532,-0.033689547330141,-0.262093037366867,-0.5972455143928528,walking
1761225866512510500,-0.1531550738288089,0.4110463142216205,0.447196655011177,-0.1034245789051055,-0.2935895025730133,-0.5491825938224792,walking
1761225866522523600,-0.0480122992252931,0.4255862962275743,0.5361141248703003,-0.1767150312662124,-0.3129184544086456,-0.4900724589824676,walking
1761225866532537300,-0.0047421895584091,0.4548872095137834,0.4995405902326106,-0.2411447763442993,-0.3090079426765442,-0.4236514270305633,walking
1761225866542550500,-0.0344089404823258,0.5151841495662928,0.3532628182947635,-0.2751472294330597,-0.2873228788375854,-0.3606767058372497,walking
1761225866552563500,-0.1308865433974191,0.5395633885413408,0.1749707824587822,-0.2921314537525177,-0.2399772107601165,-0.3004826009273529,walking
1761225866562576600,-0.206478923465684,0.5569511611938476,0.0506803859233856,-0.2921093702316284,-0.1865203827619552,-0.2362173348665237,walking
1761225866572589600,-0.2559460611417889,0.5643430250108241,-0.0114133744180202,-0.2474731653928756,-0.1233525574207305,-0.1741041392087936,walking
1761225866582602500,-0.2861087058238685,0.5678805514872074,-0.2246644954323768,-0.1465779840946197,-0.0466580428183078,-0.1247504353523254,walking
1761225866592615700,-0.4241747123965993,0.5660813931107521,-0.541241550886631,0.0120030716061592,0.0344361737370491,-0.1089255064725875,walking
1761225866602628400,-0.5574573206176981,0.567293691509962,-0.6082692604988813,0.1743613630533218,0.0501466915011405,-0.106350228190422,walking
1761225866612641500,-0.528220522076264,0.4433393950611353,-0.2814560577124357,0.3101952970027923,-0.0165496207773685,-0.1016687676310539,walking
1761225866622655200,-0.351142319009453,0.2880956418573856,0.2302478485226631,0.3891548216342926,-0.1283549964427948,-0.0928510352969169,walking
1761225866632669200,-0.1790712765801697,0.0559112723141908,0.7226783144891261,0.4123982489109039,-0.2268729358911514,-0.0749158933758735,walking
1761225866642682000,-0.0538777937252074,-0.1059311485022306,1.120987896734476,0.3618567883968353,-0.3044177889823913,-0.0636163651943206,walking
1761225866652695300,-0.0149625913321971,-0.1964566380798816,1.4140952292740343,0.2643437385559082,-0.3296078443527221,-0.0443774089217186,walking
1761225866662708000,-0.031002894898504,-0.2277285591781139,1.563596639433503,0.1347266137599945,-0.301190048456192,-0.0227056704461574,walking
1761225866672721200,-0.068183784312196,-0.222732066065073,1.5672510702878235,-0.0099688665941357,-0.2398255467414856,0.0087882773950696,walking
1761225866682734300,-0.139273519198969,-0.1951519852221012,1.535127500796318,-0.1666671335697174,-0.1816368103027343,0.0260953623801469,walking
1761225866692747000,-0.3155694493142887,-0.2207207262426614,1.433764390861988,-0.3060532212257385,-0.1093629598617553,0.029577363282442,walking
1761225866702760200,-0.4754117823546752,-0.2628214998692273,1.1709843920469285,-0.4163586795330047,-0.0101381037384271,0.0285379309207201,walking
1761225866712773000,-0.5752102367881685,-0.2466255673497915,0.8354396012723445,-0.4885769784450531,0.0747347548604011,0.0246982276439666,walking
1761225866722786300,-0.6648709992952645,-0.1725923628896474,0.4917378075271844,-0.5117645859718323,0.132306158542633,0.0201386287808418,walking
1761225866732800300,-0.7263060034669935,-0.0462929646193981,0.1155588085472583,-0.4846594929695129,0.1832038611173629,0.020902581512928,walking
1761225866742813200,-0.734975632134825,0.1043260513931512,-0.2677355753958225,-0.4041750431060791,0.2465245127677917,0.0265548750758171,walking
1761225866752826000,-0.6775536629967391,0.240693839213252,-0.5627911193937063,-0.2901513874530792,0.2985570728778839,0.0403772257268428,walking
1761225866762839000,-0.5790522261038422,0.3650643152475357,-0.6625134763836861,-0.159038096666336,0.3163885474205017,0.0752182975411415,walking
1761225866772852200,-0.4635383161442354,0.4762929856359958,-0.6657429598242044,-0.0049827848561108,0.3325452208518982,0.1236104145646095,walking
1761225866782865200,-0.3590887845018878,0.4760293662637472,-0.7782552402824163,0.1587297171354293,0.3816043734550476,0.1868013590574264,walking
1761225866792878000,-0.279061709921807,0.4783779752165079,-0.8408978666782378,0.2999247908592224,0.4319581985473633,0.2411152869462967,walking
1761225866802891300,-0.263971290958859,0.3923521351456642,-0.6565571983277797,0.3979583978652954,0.4563642144203186,0.2805098593235016,walking
1761225866812904200,-0.2414352686977013,0.2532832716733217,-0.2866220621734857,0.4596169888973236,0.4640557467937469,0.3091873228549957,walking
1761225866822917000,-0.2034150423830375,0.1118190374970436,0.0844154822647571,0.4894318580627441,0.4671428799629211,0.3253612518310547,walking
1761225866832931000,-0.2042383779972791,0.0186474173247814,0.4075128793984651,0.4812082350254059,0.4555343687534332,0.33750119805336,walking
1761225866842944300,-0.1180430265784263,-0.1039022730231285,0.704595545309782,0.4285245239734649,0.4390491247177124,0.3499626517295837,walking
1761225866852957200,0.034444011795707,-0.2761772405266761,0.9402396999180316,0.3620875179767608,0.4560938477516174,0.3718487620353699,walking
1761225866862970000,0.2031893073357641,-0.4709750054836273,0.8540443484991789,0.3119796216487884,0.5436924695968628,0.3933631181716919,walking
1761225866872983300,0.280195700654108,-0.5512164169341326,0.5590191996395587,0.2709700167179107,0.6687940359115601,0.4142563045024872,walking
1761225866882996000,0.383849971999228,-0.6469248621076346,0.560357754766941,0.2000441700220108,0.7233587503433228,0.4347698390483856,walking
1761225866893009200,0.5924867310859263,-0.8514139999955892,0.8495528822988271,0.0984051078557968,0.687984824180603,0.4647179841995239,walking
1761225866903022000,0.8432502019580453,-1.1342974601626397,1.2282196064412594,-0.0387737900018692,0.5040895938873291,0.5032578706741333,walking
1761225866913035300,0.9878894129086284,-1.3544775036573409,1.553557475978136,-0.1975503861904144,0.1852948367595672,0.5359702706336975,walking
1761225866923048200,0.9513032379850744,-1.5200328075170515,1.654236110779643,-0.3559685051441192,-0.2154600322246551,0.5354472398757935,walking
1761225866933061000,0.7396626209072769,-1.5627829849630592,1.266073828539252,-0.4801546335220337,-0.5244584679603577,0.5114579200744629,walking
1761225866943075000,0.270058136591874,-1.3477806363672018,0.2645072609990835,-0.5576360821723938,-0.6481654644012451,0.4572463631629944,walking
1761225866953088000,-0.4114422182040289,-0.926318726593256,-0.9488970536261796,-0.5919298529624939,-0.5858978033065796,0.3864417672157287,walking
1761225866963101200,-0.937619726677984,-0.394646383562684,-1.9550573786973957,-0.5893833041191101,-0.4116237163543701,0.311443954706192,walking
1761225866973114400,-1.0819169192578644,0.0772433986783027,-2.6026632088065145,-0.5484062433242798,-0.1286529451608657,0.2583277821540832,walking
1761225866983127000,-1.1284441310245543,0.466975122192502,-3.02006152240336,-0.4683630466461181,0.2409418672323227,0.2354057133197784,walking
1761225866993140200,-1.178124619190395,0.8425035483092069,-3.3043343911021945,-0.3256117701530456,0.628206193447113,0.2306441962718963,walking
1761225867003153200,-1.0641021533649415,1.1958061140924692,-3.3256513198971747,-0.1340740323066711,0.9061994552612304,0.2527415156364441,walking
1761225867013166000,-0.6909983971118927,1.3324118023216724,-3.045463674685359,0.106281392276287,1.0630608797073364,0.2861735820770263,walking
1761225867023179000,-0.3264569732272997,1.1778647992104292,-2.5001550204902885,0.3399628400802612,1.0969090461730957,0.2917408943176269,walking
1761225867033192200,0.0667788494177162,0.8574678932070732,-1.797719868084788,0.5434490442276001,0.996828556060791,0.2901585102081299,walking
1761225867043206100,0.3519245554283261,0.8039291952431201,-0.9209551537334918,0.7130671143531799,0.8576229810714722,0.2968094944953918,walking
1761225867053219000,0.5056937791001052,0.8681272343873977,-0.1113666175544261,0.8259950876235962,0.7038285732269287,0.3194937109947204,walking
1761225867063232300,0.7382092072285711,0.7520774274528026,0.6106956108629703,0.8776390552520752,0.5506427884101868,0.3471341133117676,walking
1761225867073245000,1.0060488275207575,0.5016653273016214,1.2094348264724015,0.8758650422096252,0.4098235666751861,0.3772509694099426,walking
1761225867083258000,1.1915548863887786,0.2227770742505788,1.7467612497419118,0.8136261701583862,0.2424020767211914,0.3904094099998474,walking
1761225867093271300,1.249638242045045,-0.0764449417769908,2.268960246506333,0.6818707585334778,0.0444913320243358,0.3910556733608246,walking
1761225867103284200,1.22400345005095,-0.333819282156229,2.7292718191564083,0.4893777668476105,-0.161207765340805,0.3687738180160522,walking
1761225867113297200,1.064816658309847,-0.5636380916118622,3.0236943259477616,0.2376223802566528,-0.3242909014225006,0.3315713703632355,walking
1761225867123310000,0.8559647951677442,-0.7296762105524539,3.046125937986374,-0.0385884344577789,-0.4272782504558563,0.2829287350177765,walking
1761225867133323300,0.6055538640603423,-0.7005676049679518,2.6864076599419118,-0.2967187762260437,-0.4463841021060943,0.2328759133815765,walking
1761225867143337200,0.2939193430421873,-0.551972788259387,2.0393419280588625,-0.519883394241333,-0.3750177919864654,0.1737252473831176,walking
1761225867153350100,-0.0255109098860993,-0.3664887950927019,1.2227531577289104,-0.6825408339500427,-0.246123805642128,0.1035790666937828,walking
1761225867163363300,-0.352988860191591,-0.2491173841655254,0.4816781858056783,-0.7929248809814453,-0.1099571958184242,0.0228946134448051,walking
1761225867173376000,-0.5553079240314662,-0.143693016141653,-0.0712269148677587,-0.8282365798950195,0.0104126427322626,-0.0507588237524032,walking
1761225867183389200,-0.6503156735897064,0.0050491000831127,-0.7336363463550806,-0.767460823059082,0.1587709486484527,-0.1171575561165809,walking
1761225867193402000,-0.6538768732026219,0.1501081438809633,-1.4882079287111758,-0.6254181861877441,0.344573050737381,-0.1626097112894058,walking
1761225867203415000,-0.6233247908115387,0.4123281707257032,-1.934467010611296,-0.4392920136451721,0.490986168384552,-0.1920458972454071,walking
1761225867213428200,-0.3988523838851601,0.5038058464616537,-1.933224317073822,-0.2461196631193161,0.5422039031982422,-0.2087281793355941,walking
1761225867223441200,-0.0928136735800653,0.5202841030538082,-1.6059978573113678,-0.0533360913395881,0.5258486270904541,-0.2025360614061355,walking
1761225867233454300,0.2893284350553527,0.510125697132945,-1.138095683401823,0.1108263731002807,0.4751369953155517,-0.1676224917173385,walking
1761225867243467000,0.6229571265429258,0.5385357990592717,-0.561952330482006,0.2452939003705978,0.3742290437221527,-0.1175460144877433,walking
1761225867253481200,0.8361230534918606,0.4695961183458566,0.0818155288994312,0.3331534266471863,0.2296243011951446,-0.0673940479755401,walking
1761225867263494100,0.9933434405308216,0.2553933956950903,0.6012620120853185,0.3768505752086639,0.0800041779875755,-0.0229661259800195,walking
1761225867273507000,1.0722400132436305,-0.0956628524661064,0.8957447246313095,0.3804545700550079,-0.0580091513693332,0.0004296755651012,walking
1761225867283520300,1.0958910110093651,-0.484457587391138,1.0440671541392803,0.3395960927009582,-0.1899248510599136,0.0055442764423787,walking
1761225867293533200,1.0048063531789928,-0.8111807738065719,1.08489250100255,0.250785619020462,-0.3071026802062988,-0.0142606776207685,walking
1761225867303546000,0.7738361086659133,-1.0549404303312302,1.0945523097515106,0.1213056668639183,-0.4126104712486267,-0.0503923185169696,walking
1761225867313559000,0.4963856333330273,-1.1200941627651453,0.9609364509880542,-0.0137259094044566,-0.4517203569412231,-0.1013253107666969,walking
1761225867323572200,0.2260261026417836,-1.009320834928751,0.4940285488128662,-0.1088953018188476,-0.3671183884143829,-0.1446866244077682,walking
1761225867333585200,-0.05172233272437,-0.7175929740488529,-0.2206651966631412,-0.1671442836523056,-0.2100156992673874,-0.1919163167476654,walking
1761225867343598000,-0.2275983934598043,-0.3389829485297203,-0.8222843516230582,-0.1817671656608581,0.0076713524758815,-0.2255696058273315,walking
1761225867353612300,-0.32521632551644,0.0001262567281723,-1.2490104655355214,-0.1513393223285675,0.2427331209182739,-0.2498536556959152,walking
1761225867363625000,-0.3498041292082518,0.2486187869936227,-1.5698247201681137,-0.0516428090631961,0.4452859461307525,-0.250550627708435,walking
1761225867373638100,-0.3078234748300165,0.5126555078715086,-1.7624375423014162,0.0937251895666122,0.603958249092102,-0.2323120832443237,walking
1761225867383651300,-0.1720749696857295,0.7100941427260636,-1.5831395442932843,0.236056238412857,0.6554417014122009,-0.2192998826503753,walking
1761225867393664000,0.032157690956816,0.6970446915388107,-0.9440788396894932,0.3420748114585876,0.5693241357803345,-0.2119418829679489,walking
1761225867403677200,0.2973078895019367,0.5475368516385555,-0.1673217290103435,0.418707013130188,0.3961363434791565,-0.2030860632658004,walking
1761225867413690000,0.4979324243836104,0.4282429482161998,0.3766425248384475,0.4658319652080536,0.2144694179296493,-0.1902932524681091,walking
1761225867423703300,0.5759586074700579,0.4049345533430576,0.7313876906454563,0.4702794551849365,0.041342370212078,-0.1811618059873581,walking
1761225867433716000,0.6274172477569431,0.4503144947707653,0.9994541054308412,0.4304022192955017,-0.1123549938201904,-0.1501939743757248,walking
1761225867443729200,0.676168711444363,0.4871902272254228,1.2422107223927974,0.3533553779125213,-0.2355861067771911,-0.0926238819956779,walking
1761225867453742300,0.7957422355256974,0.5801350529044866,1.363290924710035,0.2618446350097656,-0.334672212600708,-0.0026095742359757,walking
1761225867463756000,0.9584221300795672,0.671875763490796,1.360799692416191,0.1657231748104095,-0.4191181361675262,0.1009493097662925,walking
1761225867473769200,0.9655512513071298,0.6898667627334595,1.1672855375289917,0.0854812562465667,-0.4551011919975281,0.2022018581628799,walking
1761225867483782100,0.8416266924094409,0.7098971588492393,0.8325719368815422,0.033202338963747,-0.4626310169696808,0.2866613566875458,walking
1761225867493795000,0.5784567078961059,0.6957090590208769,0.5441998161703347,0.0154652381315827,-0.4789750576019287,0.3602086007595062,walking
1761225867503808300,0.3461084895607084,0.5691828662574291,0.2148696621268987,0.0370078161358833,-0.4849647581577301,0.4072831869125366,walking
1761225867513821200,0.0825344177585095,0.3145791596353053,-0.154696640715003,0.0961152091622352,-0.4745301008224487,0.4062867164611816,walking
1761225867523834000,-0.1710694276386871,0.0210340202003717,-0.435486343473196,0.164005309343338,-0.4717583060264587,0.3726352751255035,walking
1761225867533847000,-0.3539576321585104,-0.2311205397039651,-0.5062199218660592,0.2158295214176178,-0.4873718321323395,0.3280830383300781,walking
1761225867543860200,-0.4900767059145495,-0.545534864166379,-0.3931827407509088,0.215720072388649,-0.5293070673942566,0.2676593959331512,walking
1761225867553873200,-0.589571282030642,-0.9045067077577114,-0.0562865353673696,0.139285609126091,-0.6362767219543457,0.1966860443353653,walking
1761225867563886000,-0.7355364808879792,-1.209133797699213,0.3777046011120081,0.0159833785146474,-0.7814810276031494,0.1107173413038253,walking
1761225867573900300,-0.9021788493320344,-1.405558287075162,0.5239198292076588,-0.1113934814929962,-0.8938366174697876,-0.0012605545343831,walking
1761225867583913000,-1.198915843610838,-1.399955644762516,0.2141682358592748,-0.2142130583524704,-0.9554961919784546,-0.112527422606945,walking
1761225867593926100,-1.423131207036227,-1.1573615248858928,-0.1873357585132121,-0.2983648478984833,-0.9492003917694092,-0.2249132245779037,walking
1761225867603939000,-1.625852750729769,-0.7010533426582812,-0.5910813943326473,-0.3541402220726013,-0.8551199436187744,-0.3266443908214569,walking
1761225867613952300,-1.7198346643716096,-0.193033677893877,-0.9626830023944376,-0.3851425051689148,-0.680291473865509,-0.4003399908542633,walking
1761225867623968000,-1.650574227271229,0.1942401310741901,-1.296222298565507,-0.3780164122581482,-0.4559041857719421,-0.4276328682899475,walking
1761225867633981200,-1.5148067434318362,0.590634235087037,-1.4330354920655488,-0.3188929557800293,-0.2512845993041992,-0.4231484532356262,walking
1761225867643994000,-1.2726432700574395,0.917127704399824,-1.3989397457182406,-0.2228718847036361,-0.1108337342739105,-0.4014114737510681,walking
1761225867654007300,-0.9510592000961304,1.043099770411849,-1.162713407307863,-0.1135935485363006,-0.0425877980887889,-0.3744285702705383,walking
1761225867664020200,-0.6922148602295667,1.0629372743040322,-0.8548854754984379,-0.002806578297168,-0.0267188195139169,-0.3578290939331054,walking
1761225867674034200,-0.4646015249289572,0.99632340618968,-0.513745641195774,0.1049274951219558,-0.0324298106133937,-0.3365910351276397,walking
1761225867684047000,-0.2582655901305377,0.9041665160179138,-0.1501484758913517,0.1876657754182815,-0.0534144565463066,-0.3206022083759308,walking
1761225867694060000,-0.0880890562109649,0.806232796010375,0.2374181785434484,0.2279786616563797,-0.0922702178359031,-0.3058882057666778,walking
1761225867704073200,0.0567056375622749,0.6462783808976411,0.6706032593369483,0.2227719128131866,-0.1598841398954391,-0.2852164804935455,walking
1761225867714086400,0.1873054364401847,0.455363594853878,1.0467144537776707,0.2025686353445053,-0.259278655052185,-0.2551488876342773,walking
1761225867724099000,0.2303955864302813,0.274284558647871,1.255195291650295,0.1637962013483047,-0.3834632039070129,-0.2413012534379959,walking
1761225867734112300,0.1712597260463982,0.152956519049406,1.331363170051575,0.1259026825428009,-0.515528678894043,-0.2494588643312454,walking
1761225867744125200,-0.009099252256751,0.0726227531403303,1.2547738513678313,0.0780573859810829,-0.6189509630203247,-0.2936513721942901,walking
1761225867754138000,-0.303735840190202,0.0006494038194417,1.051089600121975,0.012629410251975,-0.6598041653633118,-0.3623410761356354,walking
1761225867764151000,-0.5971634907253086,-0.0062006082057952,0.7225859600305556,-0.0529093854129314,-0.5963194966316223,-0.4328858256340027,walking
1761225867774164200,-0.8375679185379296,0.0694084672689437,0.2547872464954853,-0.126806378364563,-0.4603562355041504,-0.495954692363739,walking
1761225867784178200,-0.9827453280184416,0.2530693366616964,0.0314314955741167,-0.2149918973445892,-0.3099076151847839,-0.5561551451683044,walking
1761225867794191000,-1.0255779230508952,0.4697691368252039,-0.0152449154049158,-0.3111031651496887,-0.1761681586503982,-0.5886135101318359,walking
1761225867804204300,-0.8667189019594341,0.7068225737094879,-0.028957798936963,-0.3885758519172668,-0.0678890869021415,-0.5887663960456848,walking
1761225867814217200,-0.6273460091516375,0.867136469784379,-0.0431698641628026,-0.4398598372936249,0.0138678699731826,-0.5503456592559814,walking
1761225867824230100,-0.375114292357862,1.009623032745719,-0.0976093103587627,-0.4509439170360565,0.0789320915937423,-0.484503298997879,walking
1761225867834243300,-0.1716181110300123,1.106105384901166,-0.1852156976193189,-0.4166134297847748,0.1364767551422119,-0.4098542034626007,walking
1761225867844256300,0.0282423806766048,1.120137417384982,-0.2639478735506534,-0.3494980335235595,0.1776843816041946,-0.3294493854045868,walking
1761225867854269200,0.180307248115912,1.069651677250862,-0.2201630923599004,-0.2748945653438568,0.194100484251976,-0.235394150018692,walking
1761225867864282000,0.219267056835629,0.9963649072438476,-0.0246311679095029,-0.207674503326416,0.1878953129053115,-0.1599571853876114,walking
1761225867874295300,0.2396530614560469,0.8503992699950933,0.2498129652142524,-0.1518658846616745,0.1564877033233642,-0.0966923311352729,walking
1761225867884308200,0.2744259398799389,0.6827537158578634,0.5925438681006431,-0.1230693906545639,0.1027355343103408,-0.0420503951609134,walking
1761225867894322200,0.2327973868750035,0.4900274964779615,0.9356488649964332,-0.1106593012809753,0.0226347558200359,-0.0024625847581773,walking
1761225867904335400,0.2126426702598109,0.24534137275815,1.1669348243951796,-0.1114316135644912,-0.0468822680413723,0.0297853667289018,walking
1761225867914348000,0.2340070183930918,0.0282709857165813,1.2352473131209611,-0.1174574568867683,-0.087376981973648,0.0513670779764652,walking
1761225867924361200,0.20522293205522,-0.1361158588856458,1.2014525955468416,-0.1216753721237182,-0.0944125205278396,0.0662083402276039,walking
1761225867934374100,0.126660413602367,-0.2511059276342391,1.1238760193914177,-0.1269327402114868,-0.083980031311512,0.0745555683970451,walking
1761225867944387000,0.0243971034253016,-0.342801045513153,1.0334604199290276,-0.129994049668312,-0.0811448320746421,0.0754567831754684,walking
1761225867954400300,-0.0828640881042927,-0.4036392528355121,0.9308978710770608,-0.1330057680606842,-0.075197122991085,0.0677619129419326,walking
1761225867964413200,-0.2422236791290342,-0.4708960950285196,0.8933084373950958,-0.1485975086688995,-0.075824037194252,0.04947105422616,walking
1761225867974426400,-0.3334608606399968,-0.5663280613481998,0.7943933051347732,-0.1557258367538452,-0.052878376096487,0.0340762510895729,walking
1761225867984439000,-0.4082655243966728,-0.5563526107788086,0.6001444062322377,-0.1593157798051834,-0.0102483592927455,0.0216576661914587,walking
1761225867994452200,-0.508026532896608,-0.5550660780996084,0.4697708903908729,-0.1716542392969131,0.023006085306406,-0.0003588729305192,walking
1761225868004466200,-0.5194952176984399,-0.5561386757671832,0.4598252504378557,-0.1874614357948303,0.0294562615454196,-0.007317179813981,walking
1761225868014479000,-0.4951629962028935,-0.5025187292605638,0.5090706351220607,-0.2182152569293975,0.0371578447520732,-0.0039389738813042,walking
1761225868024492300,-0.4360474844872951,-0.4665104272902011,0.4095119442611932,-0.2355164885520935,0.0588152036070823,0.0076388525776565,walking
1761225868034505200,-0.4128713376916945,-0.3982295027464628,0.232769475954771,-0.2279511392116546,0.0880420058965683,0.0296780541539192,walking
1761225868044518100,-0.3939481721654534,-0.2459644730925559,0.0515682746738195,-0.2040599137544632,0.1075422018766403,0.055989284068346,walking
1761225868054531000,-0.4310602341266348,-0.161761172273755,-0.0967640917062759,-0.1707859337329864,0.1450339406728744,0.0709253698587417,walking
1761225868064544300,-0.4757708249254151,-0.1723439410865306,-0.163081607222557,-0.1270049065351486,0.1797312051057815,0.0916602164506912,walking
1761225868074557200,-0.4516973274312913,-0.1563093366086483,-0.1290174250572919,-0.0760388448834419,0.1832841485738754,0.1233374774456024,walking
1761225868084570000,-0.3501600299738347,-0.1174701951265335,-0.1171066225111484,-0.0202493518590927,0.1814100891351699,0.1524639427661895,walking
1761225868094583300,-0.2570700602030381,-0.0657341626703739,-0.1228641631245613,0.042247399687767,0.1879212856292724,0.2079581469297409,walking
1761225868104596200,-0.2122752251869067,-0.0033685996502637,-0.1958048961728811,0.1026265919208526,0.2099466919898986,0.2621763944625854,walking
1761225868114610200,-0.2430220264324918,-0.0547106643527746,-0.2184317385226488,0.1294034123420715,0.2295423150062561,0.3028591573238373,walking
1761225868124623400,-0.337479448631592,-0.1843009208619594,-0.0586380669295787,0.1390429884195327,0.2121862322092056,0.3120505213737488,walking
1761225868134636300,-0.5068114945510402,-0.3395341526716947,0.1764683275401592,0.1130610033869743,0.1729852557182312,0.2922237515449524,walking
1761225868144649200,-0.6947183674830943,-0.4914543144106865,0.3350187210738659,0.0733404904603958,0.1429184228181839,0.2538518607616424,walking
1761225868154662100,-0.826953293282166,-0.536330982491374,0.3401449780464172,0.0229228381067514,0.1744457781314849,0.2167796641588211,walking
1761225868164675300,-0.94931586356014,-0.4668792606025934,0.2104465849876403,-0.0240840855985879,0.2410152107477188,0.178900733590126,walking
1761225868174688000,-0.957421428604424,-0.3028641719222069,0.1196598141252994,-0.0481292158365249,0.3022484183311462,0.1607605665922165,walking
1761225868184701200,-0.8877769606225192,-0.1306406423449516,-0.0226338566124439,-0.0519814789295196,0.3872354924678802,0.1449858546257019,walking
1761225868194714400,-0.7585102369792759,-0.0283732770472764,-0.2702443433463573,-0.023774404078722,0.5352613925933838,0.1544985920190811,walking
1761225868204727300,-0.5835427789887413,0.1006394718348979,-0.5136638081312179,0.0189480260014534,0.6969555020332336,0.186070367693901,walking
1761225868214740200,-0.346760962120071,0.1852332332760095,-0.5219833081871271,0.0620043538510799,0.82627934217453,0.2264731228351593,walking
1761225868224754200,-0.1672478600565344,0.1904138507843017,-0.3299795578628778,0.0890724509954452,0.8904591202735901,0.2685180604457855,walking
1761225868234767000,0.0584533214798197,0.0245230313599109,-0.0276432092070579,0.1078598350286483,0.8982021808624268,0.3055971562862396,walking
1761225868244780300,0.3406044122517109,-0.2332072828501462,0.2064583921343088,0.1101128682494163,0.8317599892616272,0.3226144909858703,walking
1761225868254793200,0.6398761857051402,-0.4811848493307828,0.4655588256537914,0.0815888196229934,0.6539319753646851,0.3418534696102142,walking
1761225868264806100,0.905519245801121,-0.5871832178503275,0.7531985404372215,-0.0169500056654214,0.40744149684906,0.3677111566066742,walking
1761225868274819000,1.037798595263809,-0.7939338709294795,0.8623007201910018,-0.1421404629945755,0.1976670920848846,0.4123376011848449,walking
1761225868284832300,1.080993155476451,-0.9626642976939678,0.5404454320728779,-0.2592540383338928,0.0928967371582984,0.4532120525836944,walking
1761225868294845200,0.8716694370388984,-0.9471446570008992,-0.0129886609107255,-0.3656635880470276,0.0688402205705642,0.4796456098556518,walking
1761225868304858000,0.5605536061326042,-0.6806739869743585,-0.4989753575652838,-0.4381519258022308,0.0668375268578529,0.4904764294624328,walking
1761225868314871300,0.2727684184638783,-0.3828343652158975,-0.9985212084949016,-0.4411551058292389,0.0929722934961319,0.4988199770450592,walking
1761225868324884200,0.0862724352430552,-0.1283078154832124,-1.6265063923329115,-0.3769260346889496,0.1882111877202987,0.4981733560562134,walking
1761225868334898200,-0.0855065289044752,0.1077034188717603,-2.1967817300021646,-0.2654004991054535,0.3265216946601867,0.5002322793006897,walking
1761225868344911000,-0.2516506655028089,0.4064005342423916,-2.441093759712577,-0.1206238716840744,0.4343608021736145,0.4942846000194549,walking
1761225868354924300,-0.4507632979841902,0.6563549537539481,-2.39222480712533,0.0369859933853149,0.5371958613395691,0.4732674658298492,walking
1761225868364937200,-0.495339558346197,0.7210831542521715,-2.2315999454051254,0.198260098695755,0.6324930787086487,0.4570171236991882,walking
1761225868374950100,-0.3608453823782503,0.7436591431975365,-1.9904402422457927,0.338089108467102,0.7069587707519531,0.4616891145706177,walking
1761225868384963300,-0.0962037909423932,0.7087982576966285,-1.5329729531109333,0.4419201612472534,0.7423804402351379,0.4643304347991943,walking
1761225868394976300,0.1391355355003848,0.651359045162797,-0.8982359569251537,0.5076456665992737,0.7291236519813538,0.4658366739749908,walking
1761225868404989200,0.3060164436743594,0.5795441012740135,-0.2330307572394609,0.5362184643745422,0.6920703053474426,0.4664460122585296,walking
1761225868415002000,0.4807730536594987,0.4673661673367023,0.3370423358559608,0.533965528011322,0.6465466618537903,0.468880832195282,walking
1761225868425015300,0.6056538903687149,0.3560182544827461,0.7742185321122408,0.502201497554779,0.6098850965499878,0.4714574217796325,walking
1761225868435028000,0.7236741205934435,0.2235164944410324,1.1508300772905349,0.4422249495983124,0.5577108263969421,0.4673735201358795,walking
1761225868445041200,0.8563793673180043,0.0553285039901733,1.47191847268939,0.3648622632026672,0.4858055114746094,0.4666624665260315,walking
1761225868455055400,0.9993727838229388,-0.1168447567045688,1.7227596119076012,0.2648959159851074,0.3845421373844147,0.4704267084598541,walking
1761225868465068000,1.1010701672129333,-0.205575764080882,2.0239280858278272,0.1394863426685333,0.2138505727052688,0.4818266332149505,walking
1761225868475081200,1.0790643793709576,-0.2364203996777534,2.291031208539009,-0.00845458637923,-0.0086146630346775,0.4833409786224365,walking
1761225868485094400,0.9548181873034686,-0.2120925986289978,2.2578046462416648,-0.1435005515813827,-0.1673324108123779,0.4681963920593261,walking
1761225868495107000,0.6085067955818027,-0.1399889009267091,1.7648504486620424,-0.2480479478836059,-0.1787780225276947,0.4349253475666046,walking
1761225868505120300,0.1369555976454168,0.0095931732535362,1.049381042638421,-0.3225730657577514,-0.1029042974114418,0.3778271675109863,walking
1761225868515133200,-0.3209934836570173,0.1596826124340295,0.5348106410562992,-0.3756937384605407,0.0026009604334831,0.3035248517990112,walking
1761225868525146400,-0.5833558415818959,0.2891255694270134,0.1917658499151468,-0.3987995982170105,0.1243801265954971,0.2148264199495315,walking
1761225868535159000,-0.676471274587512,0.3859399300158023,-0.0628577304512262,-0.391853392124176,0.2442024797201156,0.1409240663051605,walking
1761225868545172200,-0.6474392413705587,0.4954284787386656,-0.1808604250192642,-0.3704064190387726,0.326612114906311,0.0887857526540756,walking
1761225868555185200,-0.5184672628901899,0.5734475379645824,-0.204576231649518,-0.3278891444206238,0.3762409687042236,0.0608643889427185,walking
1761225868565199000,-0.3382780516633764,0.599925795045495,-0.2589016960769891,-0.2537419497966766,0.3988703787326813,0.0410472750663757,walking
1761225868575212300,-0.1573365972971543,0.5984042845666409,-0.3479617892771959,-0.1372972726821899,0.3938098549842834,0.0291206017136573,walking
1761225868585225200,-0.0440501541286706,0.653652709057927,-0.5094043971210718,-0.0030001951381564,0.4143204689025879,0.0195457376539707,walking
1761225868595238100,0.0157613404944539,0.7120324173122644,-0.4797779051423072,0.0983798280358314,0.4114776253700256,0.0069496128708124,walking
1761225868605251300,0.0948905163867399,0.6836562176555395,-0.0895633665472269,0.1521860659122467,0.358996570110321,0.0112341064959764,walking
1761225868615264300,0.271885954807233,0.6150479608535766,0.4263555270344019,0.1656847149133682,0.2907848954200744,0.0330612398684024,walking
1761225868625273300,0.4443621257049963,0.432474302175641,0.8381476911872625,0.1381950378417968,0.2039006054401397,0.0510652735829353,walking
1761225868635286500,0.4630275536105036,0.25811668317914,1.113977725711465,0.0819002538919448,0.1201470792293548,0.0684234648942947,walking
1761225868645299500,0.4054171492282301,0.1151724395781755,1.2716922529429198,0.0100766625255346,0.0600653700530529,0.082583487033844,walking
1761225868655312600,0.3384702132346108,0.0247433961123228,1.2698036627173424,-0.0565496310591697,0.0389503315091133,0.0922684371471405,walking
1761225868665325600,0.2276733401258475,-0.0319125570893287,1.184150163090229,-0.1228527501225471,0.0346320159733295,0.0867980346083641,walking
1761225868675338500,0.0869186972573399,-0.1145662903785705,1.099385721257329,-0.1919586807489395,0.0234403628855943,0.0609707161784172,walking
1761225868685352400,-0.0907391323283314,-0.259151871445775,1.046056866651773,-0.2494840174913406,0.0192634612321853,0.0195002388209104,walking
1761225868695365400,-0.1558980523940175,-0.3788853353291749,0.8811544737428426,-0.2842549681663513,0.0218738764524459,-0.0173368863761425,walking
1761225868705378600,-0.1769874743097461,-0.3290127586573362,0.6753957543104887,-0.3048358559608459,0.0189593136310577,-0.0483659096062183,walking
1761225868715391700,-0.1848045960677787,-0.2723047830075025,0.5193950452595949,-0.3040761947631836,-0.0084282476454973,-0.0791338086128234,walking
1761225868725404400,-0.1325604131600819,-0.211092481675744,0.3634159635186195,-0.2616877257823944,-0.0730756819248199,-0.0953995957970619,walking
1761225868735417600,-0.0313270488189533,-0.1442272691488265,-0.0315963307470083,-0.177701711654663,-0.0959904342889785,-0.0949746742844581,walking
1761225868745430500,-0.0242357753837481,-0.0948614729553461,-0.5061550399363041,-0.0715398639440536,-0.0832014009356498,-0.0991861969232559,walking
1761225868755443500,-0.0996877788669429,0.0080745853841304,-0.6975771909803151,0.0246703624725341,-0.0880120396614074,-0.1082941070199012,walking
1761225868765456400,-0.1141841043942607,0.0560123946011066,-0.585876811426878,0.0864727422595024,-0.1240563243627548,-0.1125937774777412,walking
1761225868775469600,-0.0004987067697569,-0.0111170218199491,-0.3134042706370353,0.1185356676578521,-0.1843044161796569,-0.107977919280529,walking
1761225868785482800,0.1230617132569663,-0.0971305869311094,-0.0690589231789112,0.1056757941842079,-0.24833345413208,-0.0949247032403945,walking
1761225868795495400,0.1760297169271856,-0.1553238327026367,0.1233311961144208,0.0656228363513946,-0.3008310496807098,-0.0752737894654274,walking
1761225868805509600,0.1508159085578285,-0.1944751088738441,0.2062193226814269,0.0218607112765312,-0.3250546455383301,-0.0555810518562793,walking
1761225868815522600,0.1020279670512303,-0.2050128695011139,0.1481061564087867,-0.0137706911191344,-0.3367502093315124,-0.0427701920270919,walking
1761225868825535500,0.0550734697831794,-0.2560369542956352,0.0527472553253173,-0.0405873917043209,-0.3414802551269531,-0.038020446896553,walking
1761225868835548700,0.0243729553647339,-0.3063356474250555,0.0080851067781448,-0.0506981611251831,-0.3647357523441314,-0.0362641178071498,walking
1761225868845561600,-0.0113208738289773,-0.3846820389091968,-0.0585655862152576,-0.0645167678594589,-0.376868337392807,-0.0361075215041637,walking
1761225868855574500,-0.0439884505366906,-0.4784884498536586,-0.0954231984913349,-0.0944455191493034,-0.380006730556488,-0.0425961799919605,walking
1761225868865587500,-0.0656209846194833,-0.5522586194634437,-0.0378512994885444,-0.1622216403484344,-0.3767313063144684,-0.0317541845142841,walking
1761225868875600600,0.0188086723010987,-0.6045774202436208,0.0205254861563444,-0.2426198422908783,-0.3713327348232269,-0.007194435223937,walking
1761225868885613600,0.0982324472257867,-0.6135188515901565,-0.053068742364645,-0.2976535260677337,-0.3696693181991577,0.0168083701282739,walking
1761225868895626500,-0.0847242924856021,-0.6718821932315826,-0.3225643131703138,-0.3303108811378479,-0.3272323310375213,0.0131196761503815,walking
1761225868905639400,-0.3257535741982981,-0.7942980280667543,-0.6019049861639738,-0.3265891373157501,-0.3158286809921264,-0.0389232821762561,walking
1761225868915653400,-0.5038644813137129,-0.9525357023894786,-0.6996148342877626,-0.3080106973648071,-0.3928476572036743,-0.1193055436015129,walking
1761225868925666600,-0.6149538528293371,-0.997923827123642,-0.6109054542213678,-0.2961460649967193,-0.4961990416049957,-0.2040129750967025,walking
1761225868935679500,-0.6566399081751704,-0.9665332480818032,-0.6081669691681861,-0.2921799123287201,-0.57572340965271,-0.2704361975193023,walking
1761225868945692400,-0.6290936565365642,-0.814763308468461,-0.7357745274275541,-0.2948020696640014,-0.6076568365097046,-0.3025166094303131,walking
1761225868955705600,-0.5383706716254353,-0.6292325535506009,-0.9008996231764554,-0.290760725736618,-0.5736250877380371,-0.3202516436576843,walking
1761225868965718500,-0.4807103636868298,-0.3790583538085222,-1.1856512153029442,-0.2493629455566406,-0.4773683547973633,-0.3254013955593109,walking
1761225868975731700,-0.4117920910876244,-0.155724230197072,-1.5402625255972149,-0.1787237673997879,-0.3351650834083557,-0.321442574262619,walking
1761225868985744400,-0.2704117358025163,0.0606651888430118,-1.698397324067354,-0.0920810177922248,-0.2124575525522232,-0.2941425144672394,walking
1761225868995757600,-0.0777815972082316,0.2413666239082813,-1.578213193807006,0.0079545471817255,-0.1558258384466171,-0.2457026839256286,walking
1761225869005770500,0.1557419850494712,0.3073240739405155,-1.3249462887465953,0.1095735877752304,-0.2011922597885131,-0.1976475417613983,walking
1761225869015783400,0.3725820704665035,0.2798223190307617,-0.9941074837058782,0.2077761590480804,-0.2943979203701019,-0.1492081880569458,walking
1761225869025796400,0.5348433742821216,0.2672562674462795,-0.8007634246885776,0.3090401887893677,-0.3550514280796051,-0.1035807877779007,walking
1761225869035810600,0.5745885246932506,0.2730845352083444,-0.7839344549626112,0.4051199555397033,-0.3475348949432373,-0.0602295994758605,walking
1761225869045823500,0.4493283332776278,0.2979144405603409,-0.7734592381775379,0.4936021268367767,-0.2916202545166015,-0.0427869595587253,walking
1761225869055836400,0.2947651827491819,0.2763952671915292,-0.6864671834230422,0.5599946975708008,-0.2434839457273483,-0.0606384612619876,walking
1761225869065849600,0.1851663785848766,0.2412777765810489,-0.3503939848601818,0.5937017798423767,-0.2216524183750152,-0.0953003019094467,walking
1761225869075862500,0.1455792682796716,0.1738824027001857,0.0462111315548419,0.5874439477920532,-0.2162200808525085,-0.1396610885858535,walking
1761225869085875500,0.2030337514478713,0.1304150168955326,0.4256593614637851,0.5486619472503662,-0.2139481306076049,-0.1735037416219711,walking
1761225869095888600,0.2560306706853211,0.1176455516934394,0.663968351367116,0.4812897443771362,-0.2112027257680893,-0.201046735048294,walking
1761225869105901600,0.3045210722837597,0.1568587871849537,0.8435416591852903,0.3882572650909424,-0.208778977394104,-0.2215344309806823,walking
1761225869115914500,0.3510322096984833,0.2762000368803739,0.9252344384878872,0.2727242708206177,-0.1958289742469787,-0.2245433926582336,walking
1761225869125927400,0.4139041148055344,0.3830775263220071,0.9690741647362708,0.1411068588495254,-0.1762645989656448,-0.214872121810913,walking
1761225869135940600,0.4875076956767588,0.487607575854659,0.9215303232729436,0.0217714961618185,-0.1352713853120803,-0.1896400451660156,walking
1761225869145953500,0.5516242670826613,0.5724544352740049,0.6856137814640998,-0.0757971405982971,-0.0796632468700409,-0.1643163114786148,walking
1761225869155967500,0.5543501849152147,0.6888035174161196,0.4063607867538928,-0.1443917602300644,-0.0258111450821161,-0.1350252330303192,walking
1761225869165980700,0.5047218653280288,0.8471949209958315,0.1620224535584449,-0.1764580905437469,0.0341794863343238,-0.0876933932304382,walking
1761225869175993300,0.5099614464819431,0.9405196859031916,-0.0635550650656223,-0.1676211059093475,0.1074463129043579,-0.0416810922324657,walking
1761225869186006500,0.4814362668085843,0.9271002323597668,-0.3032300826251506,-0.1318189054727554,0.1395334154367447,0.0024823728017508,walking
1761225869196019500,0.4569114088177681,0.9503805701822042,-0.42397184676826,-0.0761403441429138,0.1517985016107559,0.0418350137770175,walking
1761225869206032600,0.4579837872896343,0.9799509480595588,-0.5511719932705164,-0.0046898601576685,0.1880944520235061,0.0840120241045951,walking
1761225869216045600,0.4173797550268471,1.009218543598056,-0.6412801342189312,0.0594978481531143,0.2322493195533752,0.1284489333629608,walking
1761225869226058500,0.4570825276009738,1.0271084205538037,-0.5072270530819892,0.1043795719742775,0.252507209777832,0.1767147332429886,walking
1761225869236071700,0.5314313738815486,0.9780524209618568,-0.2384475215911865,0.1418945491313934,0.2409985959529876,0.2338925153017044,walking
1761225869246084400,0.6267413212567567,0.9252169028311968,-0.0205167183279991,0.1600386649370193,0.2316738069057464,0.2912913560867309,walking
1761225869256097500,0.6429028400499374,0.8079138809651136,0.1437637432903051,0.1588074713945388,0.2553634643554687,0.3408120572566986,walking
1761225869266110500,0.552354700249061,0.6923755306839943,0.2587333537727594,0.1565834730863571,0.3100927472114563,0.3902603089809418,walking
1761225869276123600,0.4759653611168265,0.6132721833527088,0.2632230664074421,0.1525351256132125,0.3954507112503052,0.4213121831417084,walking
1761225869286137600,0.4549135860640555,0.4675537988632917,0.3498258295834064,0.1337321400642395,0.4727750718593597,0.4384416341781616,walking
1761225869296150500,0.4068719511464237,0.2644143220186233,0.5456511840224266,0.1023303642868995,0.5197751522064209,0.4504194855690002,walking
1761225869306163500,0.3801557936564088,0.1177776536405086,0.7809756051570177,0.068030446767807,0.5209525227546692,0.4539306163787842,walking
1761225869316176400,0.4210946108315139,0.0030973814934492,0.9231114549845456,0.0311380829662084,0.4856196045875549,0.4618674516677856,walking
1761225869326189600,0.4188576455596834,-0.0865840584754943,0.928299086755514,-0.0102335903793573,0.4495710730552673,0.457394927740097,walking
1761225869336202500,0.3405906759873032,-0.1859416738063097,0.7678367221206426,-0.0339846946299076,0.4444974064826965,0.4389373064041137,walking
1761225869346215400,0.2611985748425126,-0.2081763019680976,0.5718477015525102,-0.0592397190630435,0.4599125981330871,0.4213873445987701,walking
1761225869356228600,0.123337845050916,-0.1558241834402084,0.4115910886228084,-0.0791481509804725,0.5001389980316162,0.3922226727008819,walking
1761225869366241500,0.0004204904343932,-0.1384796654075384,0.3572685468047857,-0.1103268414735794,0.5409119725227356,0.3653830885887146,walking
1761225869376254500,-0.0706337712801992,-0.0996650738447904,0.3441244030714034,-0.1216051280498504,0.5623807311058044,0.3509193658828735,walking
1761225869386267400,-0.0516967233590781,-0.0078887074232101,0.2535667647898197,-0.1262784302234649,0.5949400067329407,0.337441086769104,walking
1761225869396280600,-0.0589746054075658,0.1323795949667692,0.0990302830725908,-0.089356355369091,0.6070482730865479,0.3524408042430877,walking
1761225869406294500,-0.0085539298662915,0.3570370761364698,-0.2202735669970512,-0.0205386765301227,0.6706751585006714,0.3845401406288147,walking
1761225869416307500,0.00119359369874,0.5729238063514233,-0.5282353543192148,0.0578969791531562,0.7561761140823364,0.4300478100776672,walking
1761225869426320600,0.0669155179420486,0.7115858425885438,-0.5530436323612928,0.1216589137911796,0.8118454813957214,0.4920526146888733,walking
1761225869436333300,0.2137092035127803,0.7802338468790054,-0.3158265293478965,0.1634051650762558,0.8282946348190308,0.558999240398407,walking
1761225869446346500,0.3400391430517658,0.7649421697229146,0.0304945069849491,0.1863278001546859,0.8086745738983154,0.6350284814834595,walking
1761225869456359700,0.4069230602791532,0.7142717206716537,0.3876473184555769,0.2014897465705871,0.7575035691261292,0.7061187624931335,walking
1761225869466372600,0.3909012422176077,0.6483966882258654,0.6934089653849601,0.1798923015594482,0.7236324548721313,0.7569689154624939,walking
1761225869476385500,0.2149818172644823,0.4399877465456724,0.8700339447915554,0.1308362036943435,0.7430236339569092,0.8033366203308105,walking
1761225869486398500,-0.107448567327857,0.1686018319487571,0.7866893066287041,0.1023859158158302,0.7936623096466064,0.8188338279724121,walking
1761225869496411600,-0.3857375027788802,0.0427367334425449,0.6591910539627075,0.0824749022722244,0.8131026029586792,0.7791675329208374,walking
1761225869506424300,-0.524759312239103,0.000902501797676,0.6827087076723575,0.0459685586392879,0.80707186460495,0.7192988991737366,walking
1761225869516437500,-0.5763099781909957,-0.0795762255400419,0.7462602656066417,-0.0086473803967237,0.8054527044296265,0.678908109664917,walking
1761225869526451700,-0.4785605652417987,-0.1646861198097467,0.6628378860324621,-0.0619518794119358,0.7738814949989319,0.6676245331764221,walking
1761225869536464400,-0.3131293992184102,-0.0588566781163215,0.4924053315252065,-0.099882498383522,0.7605430483818054,0.6803257465362549,walking
1761225869546477600,-0.2191744101161137,0.1150496899813413,0.1489315013170242,-0.1155040711164474,0.7991995811462402,0.6898420453071594,walking
1761225869556490500,-0.2710807211052626,0.2368944469302892,-0.2810463078677654,-0.1241450980305671,0.8750484585762024,0.7100328803062439,walking
1761225869566503400,-0.4030861489973962,0.3956044149398803,-0.5465764821738004,-0.1332419216632843,0.9518998265266418,0.7374240159988403,walking
1761225869576516600,-0.4412182747213169,0.5317711272299289,-0.7059913835823536,-0.1156388744711875,1.0039981603622437,0.7827771306037903,walking
1761225869586529500,-0.3743608436420559,0.5869412257879972,-0.885998991164565,-0.0693534016609191,1.0594757795333862,0.8329311013221741,walking
1761225869596542700,-0.284962093072012,0.5657669203341007,-1.2018068158119917,0.0147559465840458,1.1273194551467896,0.8819799423217773,walking
1761225869606555400,-0.2284679793685674,0.6021802959740161,-1.3767168079942464,0.1041374877095222,1.1716320514678955,0.9369494318962096,walking
1761225869616568600,-0.1899771764000877,0.6184206521570682,-1.2926070306777953,0.1779706180095672,1.238099455833435,0.984512984752655,walking
1761225869626581500,-0.0589190758280456,0.4437532365590333,-1.1325690289348362,0.2352464348077774,1.363168716430664,1.0441761016845703,walking
1761225869636594400,0.213067252347432,0.1045803184151649,-0.9053981036394834,0.2415866255760193,1.4893888235092163,1.1048450469970703,walking
1761225869646607600,0.5620706230994313,-0.3608966741740703,-0.4353828830987215,0.1761013716459274,1.4996691942214966,1.1655921936035156,walking
1761225869656621600,0.8400134850591421,-0.9066770375341175,0.2411643793344497,0.0604848191142082,1.3307353258132937,1.2203623056411743,walking
1761225869666634500,1.0334145349606871,-1.3175421499699354,0.8732564139693975,-0.0817239880561828,0.980255365371704,1.2675018310546875,walking
1761225869676647400,1.0341916568130254,-1.5120540837228298,1.26363461869359,-0.2249925285577774,0.5449603199958801,1.2876688241958618,walking
1761225869686660600,0.7770175151810049,-1.5695096628695726,1.1062041691005229,-0.3265534937381744,0.2003222107887268,1.2650504112243652,walking
1761225869696673500,0.2070829537734389,-1.440398129788041,0.1398953774243593,-0.3392532765865326,0.0530530028045177,1.1992301940917969,walking
1761225869706686500,-0.482892822292447,-0.9223457313090564,-1.2782745539426803,-0.2714199125766754,0.1375750750303268,1.1075553894042969,walking
1761225869716699600,-1.0770290010858323,-0.210564658409357,-2.503707744535804,-0.1404139250516891,0.4368211328983307,1.0193945169448853,walking
1761225869726712600,-1.3547567589901386,0.4732856205135584,-3.3002515057027337,0.0241012442857027,0.8446773290634155,0.9599013924598694,walking
1761225869736725500,-1.2973667924255132,0.8863315841197967,-3.549278873497248,0.1987579464912414,1.235736846923828,0.9267492294311525,walking
1761225869746738400,-0.90888755319044,1.0030740494936703,-3.3057740685164925,0.3676013052463531,1.4735044240951538,0.9056628346443176,walking
1761225869756751600,-0.4032338869050145,0.9346265362113714,-2.499189974850416,0.4954751133918762,1.5299922227859497,0.8892585039138794,walking
1761225869766764500,0.0064884852364659,0.7614373764723539,-1.4709399830460548,0.5602424144744873,1.4449965953826904,0.8737703561782837,walking
1761225869776777500,0.2348397428901865,0.634191637262702,-0.4804337387025356,0.5484591126441956,1.2994853258132937,0.8430052399635315,walking
1761225869786791700,0.3785133967442438,0.5387339519798755,0.3004366525143385,0.51112961769104,1.1378517150878906,0.8265271782875061,walking
1761225869796804400,0.5154796253815292,0.5857745200961828,0.7036170556664466,0.5202829241752625,1.0170739889144895,0.7818484306335449,walking
1761225869806817500,0.4844991249779239,0.6104524497568607,0.7764794627815484,0.4663882553577423,0.8161280751228333,0.7196987867355347,walking
1761225869816830700,0.4940849186426028,0.62660454313457,1.2598884179025889,0.3566288948059082,0.5563207864761353,0.6945556402206421,walking
1761225869826843400,0.5729670244386419,0.8442290569275617,1.4411357964128255,0.2408058941364288,0.3991660177707672,0.6901733875274658,walking
1761225869836856600,0.5383084200441837,1.123003912732005,0.9649123688817024,0.1380109935998916,0.4880791306495666,0.6938464045524597,walking
1761225869846869500,0.3030334640745073,1.3769663988411425,0.2870668833315372,0.0462429858744144,0.6565869450569153,0.6936115026473999,walking
1761225869856882700,0.1054342683633789,1.6193799014538526,0.0557353312253952,-0.0271531846374273,0.7997909188270569,0.676708996295929,walking
1761225869866895400,0.0489973647398874,1.6826450436621905,0.0039279870986938,-0.0940145030617713,0.9420627951622008,0.6562279462814331,walking
1761225869876908500,0.1132365396121516,1.671893932545185,-0.0234586169987916,-0.1119940876960754,1.072961926460266,0.6530226469039917,walking
1761225869886921700,0.3452153035806491,1.6874176648914814,-0.0726981564640998,-0.0997981429100036,1.1533550024032593,0.6613548994064331,walking
1761225869896934400,0.5921703586131334,1.716446775498986,0.0426613301187753,-0.0787505805492401,1.1431177854537964,0.6798602342605591,walking
1761225869906947600,0.77860726859048,1.693544623339176,0.3263286341398954,-0.0385488346219062,1.0882420539855957,0.7134740948677063,walking
1761225869916961500,1.020029860469699,1.685213432845473,0.4372288032263517,0.0440707392990589,1.0333096981048584,0.7452411651611328,walking
