timestamp,acc_x,acc_y,acc_z,gyr_x,gyr_y,gyr_z,activity
1761303745604682000,0.0,0.0,0.0,,,,walking
1761303745624955400,0.035217709839344,0.0168390274047851,-0.336794376373291,0.4176668226718902,-0.0925433561205864,0.0107661830261349,walking
1761303745665502500,0.497117280960083,0.0816044807434082,-0.7588744163513184,0.0890309885144233,-0.4694361090660095,0.0064902519807219,walking
1761303745675639000,0.3254191875457763,-0.1086792945861816,-0.3721332550048828,0.0933069214224815,-0.5586197972297668,-0.017943637445569,walking
1761303745685776000,0.0677061080932617,0.0089426040649414,0.4429483413696289,0.1397313177585601,-0.4871506989002228,-0.0093917762860655,walking
1761303745695912700,0.0671148747205734,0.1453714370727539,0.894160270690918,0.1977618038654327,-0.3888042867183685,-0.0075592347420752,walking
1761303745706049300,0.1348430514335632,0.0409636497497558,0.824129581451416,0.2460187375545501,-0.3619270026683807,-0.0216087214648723,walking
1761303745726322700,0.2733734250068664,-0.2850399017333984,0.0978808403015136,0.2411319613456726,-0.3833066523075104,-0.0765849724411964,walking
1761303745736459500,0.3300413191318512,-0.2203912734985351,-0.2917885780334472,0.1812689304351806,-0.3680354654788971,-0.1346154659986496,walking
1761303745746596400,0.3635229468345642,0.0121097564697265,-0.5203170776367188,0.0670404881238937,-0.2580829560756683,-0.2170798480510711,walking
1761303745766869800,0.3305852115154266,0.3378353118896484,-0.5453696250915527,,,,walking
1761303745777006300,-0.209545612335205,0.5008783340454102,0.25579833984375,-0.0630699768662452,-0.215323656797409,-0.2971008419990539,walking
1761303745797280000,0.2950929999351501,-0.1294851303100586,0.6354503631591797,0.1867665499448776,0.0968956500291824,-0.3117611706256866,walking
1761303745807416600,0.2888770997524261,-0.6259374618530273,0.4644241333007812,0.3407000601291656,-0.0070247435942292,-0.2751103341579437,walking
1761303745817553400,-0.1883599609136581,-0.6541199684143066,0.4555072784423828,0.4170559644699096,-0.1310267299413681,-0.211582213640213,walking
1761303745827690200,-0.4949526786804199,-0.5229201316833496,0.556729793548584,0.4335488379001617,-0.1945548504590988,-0.1150683537125587,walking
1761303745837826800,-0.6783136129379272,-0.5502500534057617,0.7725057601928711,0.448820024728775,-0.1530172377824783,-0.0002290677221026,walking
1761303745847963600,-0.739126443862915,-0.4465126991271972,1.161865234375,0.4866925477981567,-0.0125223686918616,0.1176644563674926,walking
1761303745858100200,-0.6005964279174805,-0.2294936180114746,1.2763090133666992,0.5428904891014099,0.0773485377430915,0.1909661293029785,walking
1761303745868237000,-0.3757060468196869,0.0240702629089355,0.840794563293457,0.5581616759300232,0.0681858286261558,0.2160108685493469,walking
1761303745878374000,-0.1813096553087234,0.2978382110595703,0.243654727935791,0.5373928546905518,-0.0430647321045398,0.2111240774393081,walking
1761303745888510500,-0.3866927623748779,0.4203910827636719,0.6047525405883789,0.5551074743270874,-0.0033596600405871,0.2184542566537857,walking
1761303745898647300,-0.4229830205440521,0.300079345703125,1.6599092483520508,0.631463348865509,0.1818034201860427,0.2416664510965347,walking
1761303745908784000,-0.1183618456125259,-0.0717668533325195,1.829329490661621,0.7353073954582214,0.3467321693897247,0.2581593096256256,walking
1761303745918920700,0.0297199487686157,-0.3221702575683594,1.695910930633545,0.8452599048614502,0.4591280817985534,0.2551050782203674,walking
1761303745929057500,-0.0657817423343658,-0.3047566413879394,1.807147026062012,0.99247407913208,0.5855734348297119,0.255715936422348,walking
1761303745939194000,-0.2182921469211578,-0.3433170318603515,2.587562084197998,1.2039035558700562,0.8628981113433838,0.3143572807312011,walking
1761303745949331000,-0.2551546990871429,-0.90629243850708,3.3380823135375977,1.4787847995758057,1.19764244556427,0.4157579243183136,walking
1761303745959467800,-0.3117960393428802,-1.578258991241455,3.692302227020264,1.7945928573608398,1.23368239402771,0.4829511046409607,walking
1761303745969604400,-0.2478777170181274,-1.5387043952941897,2.590327739715576,2.070085048675537,0.95574688911438,0.4676799178123474,walking
1761303745979741200,-0.1516078412532806,-1.0818052291870115,1.1765122413635254,2.309537172317505,0.4847836494445801,0.3901023268699646,walking
1761303745989878000,-0.1292155683040619,-0.6498956680297852,0.7901835441589355,2.555097818374634,0.1127776727080345,0.3003077805042267,walking
1761303746000014600,0.2670124173164367,-0.5422916412353516,1.2768397331237793,2.781722068786621,-0.032069481909275,0.1927986592054367,walking
1761303746010151400,0.791181206703186,-0.7061605453491211,1.2835278511047363,2.8806793689727783,-0.0778830274939537,0.0492495596408844,walking
1761303746020288000,0.9021151065826416,-1.0263805389404297,0.6897087097167969,2.864797353744507,-0.1682884246110916,-0.0771958231925964,walking
1761303746030424800,0.5624376535415649,-1.2682008743286133,-0.0827565193176269,2.784776210784912,-0.1902789175510406,-0.159660205245018,walking
1761303746040561700,0.1609237939119339,-1.2186851501464844,-0.1348123550415039,2.712696313858032,-0.0815481096506118,-0.1877591758966446,walking
1761303746050698200,-0.2605962753295898,-1.053520679473877,0.3285474777221679,2.6876516342163086,0.255715936422348,-0.1737096905708313,walking
1761303746060835000,-0.5814680457115173,-0.7116618156433105,1.44063138961792,2.735297679901123,0.8146411776542664,-0.1437781751155853,walking
1761303746070971600,-0.752446711063385,-0.4202423095703125,1.9731192588806152,2.7157504558563232,1.3185901641845703,-0.0936886966228485,walking
1761303746081108500,-0.9701945185661316,-0.2685470581054687,0.381685733795166,2.457973003387451,1.5274999141693115,0.1194969937205314,walking
1761303746091245300,-3.0280354022979736,-0.366703987121582,-2.3756837844848637,2.100016593933105,1.3326396942138672,0.502498209476471,walking
1761303746101382000,-2.8687169551849365,-1.0350642204284668,-3.5893144607543945,1.93508780002594,0.9117658734321594,0.7590540647506714,walking
1761303746111518700,-1.271216630935669,-1.0622878074645996,-3.2230820655822754,2.0334341526031494,0.3394020199775696,0.8451835513114929,walking
1761303746121655600,-0.4860574305057525,-0.5236883163452148,-2.327757835388184,2.300985336303711,-0.2000524699687957,0.8763367533683777,walking
1761303746131792100,-0.4719502031803131,-0.339207649230957,-1.5797059535980225,2.518446922302246,-0.5543438792228699,0.928869605064392,walking
1761303746141929000,-0.5535903573036194,-0.5455026626586914,-1.460723876953125,2.6271777153015137,-0.716829240322113,1.004003882408142,walking
1761303746152065800,-0.2463614046573639,-0.7064886093139648,-1.334972858428955,2.668104410171509,-0.7754706144332886,1.0437089204788208,walking
1761303746162202400,0.2253378629684448,-0.7254724502563477,-0.8872716426849365,2.6876516342163086,-0.6459710001945496,1.048595666885376,walking
1761303746172339200,0.7615236639976501,-0.7087621688842773,-0.3158726692199707,2.643059730529785,-0.2434226274490356,1.030270218849182,walking
1761303746182475800,2.180651903152466,-0.2738885879516601,0.0609688758850097,2.498288869857788,0.2160108685493469,0.9032140374183656,walking
1761303746192612600,3.309741973876953,0.8366079330444336,-0.9030110836029052,2.2588367462158203,0.332071840763092,0.6564317345619202,walking
1761303746202749400,3.2478551864624023,1.6792802810668943,-2.7142910957336426,1.9723494052886963,0.2807606756687164,0.3833830058574676,walking
1761303746212886000,2.6252264976501465,1.7789621353149414,-3.385872840881348,1.6266099214553833,0.3106921911239624,0.2044047713279724,walking
1761303746223022800,1.8123522996902464,1.3589000701904297,-3.3896946907043457,1.255214810371399,0.38093963265419,0.1225512325763702,walking
1761303746233159700,1.0381649732589722,0.718754768371582,-3.172987937927246,0.9539906978607178,0.4194230139255523,0.1060583516955375,walking
1761303746243296300,0.5442363023757935,0.2965450286865234,-2.5998566150665283,0.7762341499328613,0.3833830058574676,0.124994620680809,walking
1761303746253433000,0.0668941140174865,0.0693483352661132,-2.0657315254211426,0.7230904698371887,0.2050156146287918,0.1640888452529907,walking
1761303746263569700,-0.4854921996593475,-0.1731557846069336,-1.4067670106887815,0.789061963558197,-0.0607793033123016,0.231282040476799,walking
1761303746273706500,-0.5297885537147522,-0.4124746322631836,-0.4965254068374634,0.8971819281578064,-0.185392141342163,0.3076379597187042,walking
1761303746283843300,-0.1669918298721313,-0.6812229156494141,0.1748570203781128,0.9833113551139832,-0.1615691035985946,0.3784962296485901,walking
1761303746293980000,0.1324163079261779,-0.7520837783813477,0.2738779783248901,1.0352333784103394,0.0076355906203389,0.4224772453308105,walking
1761303746304116700,0.2668768167495727,-0.7406740188598633,-0.1144295930862426,1.0376768112182615,0.0161874517798423,0.4261423051357269,walking
1761303746314253600,0.2113576531410217,-0.58673095703125,-1.2198705673217771,1.0236272811889648,-0.0931542068719863,0.4035409688949585,walking
1761303746324390100,0.2513961791992187,-0.4237699508666992,-1.7497217655181885,0.9717052578926086,-0.2098260372877121,0.3864372372627258,walking
1761303746334527000,0.4062827825546264,-0.2516422271728515,-1.6051383018493652,0.867861270904541,-0.1805053651332855,0.3467321693897247,walking
1761303746344663600,0.5913918018341064,-0.1927442550659179,-1.4340124130249023,0.6613948941230774,-0.0833806544542312,0.2935884594917297,walking
1761303746354800400,0.7716110944747925,0.0140666961669921,-1.5629596710205078,0.3816268146038055,0.0418430380523204,0.2099023908376693,walking
1761303746364937200,1.3783400058746338,0.3020648956298828,-1.7930688858032229,0.1183516532182693,0.1891335844993591,0.0889546349644661,walking
1761303746375073800,2.005332469940185,0.4613351821899414,-2.166326999664306,-0.1082726791501045,0.2874799966812134,-0.06986565887928,walking
1761303746385210600,2.273669004440308,0.5357427597045898,-2.5609350204467773,-0.2909159958362579,0.3797179162502289,-0.2213557809591293,walking
1761303746395347500,2.324653625488281,0.4319496154785156,-2.6025636196136475,-0.4430169761180877,0.4621823132038116,-0.3441360890865326,walking
1761303746405484000,2.1997313499450684,0.2519826889038086,-2.4855124950408936,-0.5596888065338135,0.4994439780712127,-0.4058316349983215,walking
1761303746415620900,1.9355287551879885,-0.0904817581176757,-2.387990713119507,-0.6183301210403442,0.5250995755195618,-0.4088858962059021,walking
1761303746425757400,1.5990426540374756,-0.5828781127929688,-1.690887451171875,-0.4992149174213409,0.464014858007431,-0.3630723357200622,walking
1761303746435894300,0.7696429491043091,-0.659367561340332,-0.6939267516136169,0.0016798300202935,0.0375671051442623,-0.2781645655632019,walking
1761303746446031000,-0.3681608438491821,-0.791020393371582,1.043708562850952,0.5740436911582947,-0.5781669020652771,-0.151719182729721,walking
1761303746456167700,-1.259451389312744,-0.940326690673828,1.1388893127441406,0.8257128000259399,-1.2568182945251465,-0.0014507622690871,walking
1761303746466304500,-1.6883423328399658,-0.8848361968994141,0.1416556239128112,0.8336538076400757,-1.5622419118881226,0.1292705535888672,walking
1761303746476441300,-1.0835062265396118,-0.7998752593994141,-0.3446366786956787,0.7224795818328857,-1.4657280445098877,0.1555369794368744,walking
1761303746486578000,0.2806060314178467,-0.0075178146362304,-1.766552448272705,0.4366030693054199,-1.249488115310669,0.0150421140715479,walking
1761303746496714800,1.0563870668411257,1.0126361846923828,-3.3669118881225586,0.0975828468799591,-0.9782719016075134,-0.1810398548841476,walking
1761303746506851600,1.204985737800598,1.102396011352539,-3.564116716384888,-0.0881147161126136,-0.7485933303833008,-0.3276431858539581,walking
1761303746516988200,1.0019574165344238,0.793116569519043,-2.405708074569702,-0.1553079187870025,-0.6612421870231628,-0.396668940782547,walking
1761303746527125000,0.6270055770874023,0.3548269271850586,-1.253669261932373,-0.1327065676450729,-0.6398624777793884,-0.3795652091503143,walking
1761303746537261600,0.1142499446868896,-0.0309209823608398,-0.2902657091617584,-0.0441337153315544,-0.661853015422821,-0.3080960810184479,walking
1761303746547398400,-0.4279119968414306,-0.3077249526977539,-0.1114605963230133,0.0010689827613532,-0.5005893111228943,-0.2335727214813232,walking
1761303746557535200,-0.4583807587623596,-0.3205823898315429,-0.6007097959518433,-0.0465771034359931,-0.2098260372877121,-0.2109713703393936,walking
1761303746567671800,-0.3527374863624573,0.1120443344116211,-0.950652003288269,-0.0856713280081749,-0.0369562581181526,-0.236016109585762,walking
1761303746577808600,-0.0428522229194641,0.4024858474731445,-0.5745264887809753,-0.0813953951001167,0.0174091476947069,-0.2744994759559631,walking
1761303746587945500,-0.0198343396186828,0.2673635482788086,-0.2916728258132934,-0.0838387832045555,-0.0827698037028312,-0.1144575029611587,walking
1761303746598082000,-0.0850557684898376,-1.6591663360595703,-0.6912258863449097,-0.1534753739833831,-0.115144707262516,-0.0148894023150205,walking
1761303746608219000,0.2200169563293457,-0.6264495849609375,-0.9189682602882384,-0.2139492481946945,-0.1902789175510406,0.0804027691483497,walking
1761303746618355500,0.5152820944786072,-0.1889705657958984,-0.8237487077713013,-0.2866400778293609,-0.2629697322845459,0.0981173440814018,walking
1761303746628492300,1.326075553894043,0.462259292602539,-0.6920151710510254,-0.3813214004039764,-0.1798945218324661,0.0364217683672905,walking
1761303746638629000,0.9414668083190918,1.199753761291504,-0.3165820240974426,-0.4167505502700805,-0.1285833418369293,0.0125987250357866,walking
1761303746648765700,0.3327412605285644,0.8420066833496094,-0.186307281255722,-0.4436278343200683,-0.1896680742502212,-0.0130568603053689,walking
1761303746658902500,0.0044744610786437,1.0067863464355469,-0.5479977130889893,-0.4320217370986938,-0.091321662068367,-0.052151083946228,walking
1761303746669039400,-0.4801461100578308,0.8000936508178711,0.4991770982742309,-0.3770454823970794,0.0497840531170368,-0.037490751594305,walking
1761303746679176000,-0.5436168313026428,-0.0326108932495117,0.165449321269989,-0.3611634373664856,0.2416664510965347,0.0083227939903736,walking
1761303746689312800,-0.3868131637573242,-0.0703268051147461,0.715154230594635,-0.3049654960632324,0.5336514115333557,0.0150421140715479,walking
1761303746699449600,-0.5650606751441956,0.2863931655883789,0.4203463196754455,-0.279920756816864,0.521434485912323,0.0559688806533813,walking
1761303746709586200,-0.0206069350242614,0.0379743576049804,-0.747498095035553,-0.2652604281902313,0.4591280817985534,0.1268271654844284,walking
1761303746719723000,-0.655570387840271,-0.2245950698852539,-0.6250219941139221,-0.1327065676450729,0.1970745921134948,0.2538833916187286,walking
1761303746739996400,-0.7416390776634216,-0.3036041259765625,-0.8835961818695068,-0.1889045089483261,0.3113030195236206,0.38093963265419,walking
1761303746750133200,0.8325852155685425,-0.5924978256225586,-1.0258989334106443,-0.1699682474136352,0.2990860939025879,0.3540623486042022,walking
1761303746760269800,0.2836638689041137,-0.5228538513183594,-0.3400083184242248,-0.1394258886575698,0.2380013614892959,0.3705552220344543,walking
1761303746770406700,0.0224068164825439,-0.4536314010620117,-0.3679516911506653,-0.1253764033317566,0.1940203607082367,0.3870480954647064,walking
1761303746780543500,0.4452117681503296,-0.4304780960083008,-0.5839962959289551,-0.1113269105553627,0.1695864647626876,0.3546731770038605,walking
1761303746790680000,0.6640803813934326,-0.4223346710205078,-0.596538782119751,-0.089947260916233,0.1439308822154998,0.3137464225292206,walking
1761303746800817000,0.440045952796936,-0.2296705245971679,-0.4941080510616302,-0.0545181185007095,0.1469851285219192,0.2850365936756134,walking
1761303746810953700,0.4673550128936767,0.0059261322021484,-0.3702036142349243,-0.0227540601044893,0.118886150419712,0.2563267946243286,walking
1761303746821090300,0.3404515981674194,-0.0410680770874023,-0.3592774271965027,-0.0007635590736754,0.1225512325763702,0.2288386523723602,walking
1761303746831227100,0.7149418592453003,-0.0669260025024414,-0.323405921459198,0.0114533863961696,0.1097234413027763,0.1854684948921203,walking
1761303746851500500,0.6869857311248779,0.1412973403930664,-0.628036379814148,0.0242811776697635,0.0724617540836334,0.071240060031414,walking
1761303746871774200,0.1919312477111816,0.2363700866699218,-0.588401198387146,0.0273354146629571,0.1225512325763702,0.0730726048350334,walking
1761303746881910800,0.5048912763595581,0.1277227401733398,-0.3427101969718933,0.0316113457083702,0.1390441060066223,0.0272590592503547,walking
1761303746892047600,0.2316821813583374,0.2410783767700195,-0.5856896638870239,0.0328330397605896,0.1304922401905059,0.0449736304581165,walking
1761303746902184400,0.0473277568817138,0.2961969375610351,-0.5063226222991943,0.051158457994461,0.0999498814344406,0.0297024473547935,walking
1761303746912321000,0.573662281036377,0.5120515823364258,-0.5477148294448853,0.0401632077991962,0.1201078444719314,-0.0069483877159655,walking
1761303746922457900,0.8345938920974731,0.3716897964477539,-0.5000712275505066,0.0768140405416488,0.142709195613861,-0.028938889503479,walking
1761303746932594700,0.9124228954315186,0.3294706344604492,-0.235324740409851,0.0914743766188621,0.1524827480316162,-0.0466534607112407,walking
1761303746942731300,0.8320063352584839,0.5061016082763672,-0.6202857494354248,0.0731489583849906,0.126216322183609,-0.0643680319190025,walking
1761303746952868000,0.5430864095687866,0.5738286972045898,-1.1809951066970823,0.1140757277607917,0.095063105225563,-0.0912453085184097,walking
1761303746963004700,0.810652494430542,0.4478483200073242,-0.559226930141449,0.1537808030843734,0.0497840531170368,-0.1260636001825332,walking
1761303746973141500,0.713088870048523,0.1871585845947265,-0.826154351234436,0.1721062213182449,0.0088572856038808,-0.1333937644958496,walking
1761303746983278300,0.398980975151062,-0.0669527053833007,-0.7190402746200562,0.2093679010868072,-0.0021379655227065,-0.1236202120780944,walking
1761303746993415000,0.6196973323822021,-0.1291217803955078,-0.4499586820602417,0.2215848416090011,-0.0003054236294701,-0.1248419061303138,walking
1761303747003551700,0.6896743774414062,-0.0885457992553711,-0.5765973329544067,0.2069245129823684,0.0119115216657519,-0.129728689789772,walking
1761303747013688600,0.6424651145935059,-0.1122674942016601,-0.5966049432754517,0.1928750276565551,0.0009162708884105,-0.1278961449861526,walking
1761303747023825200,0.64650559425354,-0.2020444869995117,-0.736842155456543,0.1788255423307418,0.0106898266822099,-0.1126249656081199,walking
1761303747033962000,0.6439903974533081,-0.3551321029663086,-0.7613728642463684,0.1861557066440582,0.0155766047537326,-0.0936886966228485,walking
1761303747044098800,0.592846155166626,-0.2621545791625976,-0.7111762762069702,0.1953184157609939,0.0149657577276229,-0.082082599401474,walking
1761303747054235400,0.5601902008056641,-0.2290945053100586,-0.6947261095046997,0.1953184157609939,0.021074229851365,-0.0723090469837188,walking
1761303747064372200,0.2888727188110351,-0.2934732437133789,-0.6441637873649597,0.1831014603376388,0.038177952170372,-0.0594812519848346,walking
1761303747074509000,0.1886887550354004,-0.3216514587402344,-0.5892470479011536,0.1592784225940704,0.0455081202089786,-0.0637571811676025,walking
1761303747084645600,0.2114214897155761,-0.2738761901855469,-0.6388883590698242,0.1403421610593795,0.0516165941953659,-0.0979646295309066,walking
1761303747094782500,0.3517816066741943,-0.2505817413330078,-0.6328026056289673,0.1256818175315857,0.0700183659791946,-0.1346154659986496,walking
1761303747104919300,0.2721070051193237,-0.2824287414550781,-0.6091300845146179,0.1372879147529602,0.0797919258475303,-0.1553842723369598,walking
1761303747115055900,0.2489490509033203,-0.1691999435424804,-0.4794742166996002,0.1525591015815735,0.0767376869916915,-0.1688229143619537,walking
1761303747125192700,0.1952959299087524,-0.1376352310180664,-0.5180903673171997,0.1684411317110061,0.0840678513050079,-0.1712663024663925,walking
1761303747135329300,0.286285400390625,-0.0374622344970703,-0.4824711084365845,0.1727170646190643,0.0968956500291824,-0.1871483325958252,walking
1761303747145466000,0.4928109645843506,0.2164583206176757,-0.4823214113712311,0.1794363856315612,0.1146102175116539,-0.2066954374313354,walking
1761303747155603000,0.3983955383300781,0.3447227478027344,-0.4841883480548858,0.2069245129823684,0.1091125905513763,-0.2323510199785232,walking
1761303747165739500,0.2021898031234741,0.6311702728271484,-0.2519554197788238,0.2619007527828216,0.0761268362402916,-0.2567849159240722,walking
1761303747175876400,0.0243967771530151,1.0177593231201172,-0.024094820022583,0.2997733056545257,0.0284043978899717,-0.287938117980957,walking
1761303747186013200,-0.014847993850708,1.4019718170166016,-0.0952463150024414,0.2710634768009186,0.0131332157179713,-0.3068743944168091,walking
1761303747196149800,-0.0195523500442504,1.5865087509155271,-0.4334195256233215,0.2356343269348144,0.0125223686918616,-0.3166479468345642,walking
1761303747216423400,0.4505848288536072,1.7198162078857422,0.1487906128168106,0.2673983871936798,-0.0314586348831653,-0.3361950516700744,walking
1761303747226560000,0.4739556312561035,1.5934295654296875,0.316028356552124,0.2796153426170349,-0.0424538850784301,-0.341081827878952,walking
1761303747236696800,0.4426860809326172,1.368128776550293,0.2887512445449829,0.2698417901992798,-0.0595576092600822,-0.3429143726825714,walking
1761303747246833700,0.5652616024017334,1.127664566040039,0.2354054003953933,0.2673983871936798,-0.0760504826903343,-0.3563530147075653,walking
1761303747256970200,0.698675811290741,0.8508596420288086,0.3508006334304809,0.259457379579544,-0.1029277667403221,-0.3526879251003265,walking
1761303747267107000,0.5964441299438477,0.4451904296875,0.4794037938117981,0.2759502530097961,-0.1475196182727813,-0.3355842232704162,walking
1761303747277244000,0.3604840040206909,0.0612802505493164,0.6396504640579224,0.2881672084331512,-0.1823379099369049,-0.3239781260490417,walking
1761303747287380500,0.3027359843254089,-0.1796045303344726,0.6280590891838074,0.2667875289916992,-0.2086043357849121,-0.3062635362148285,walking
1761303747297517300,0.0676594376564025,-0.3354911804199219,0.5179831385612488,0.2313583940267563,-0.2293731421232223,-0.2897706627845764,walking
1761303747307654000,-0.0029062628746032,-0.4569406509399414,0.3942737877368927,0.1831014603376388,-0.2336490750312805,-0.2781645655632019,walking
1761303747317790700,-0.0174037814140319,-0.4894247055053711,0.3817454874515533,0.1446180939674377,-0.2409792393445968,-0.2628933787345886,walking
1761303747327927600,0.0262058973312377,-0.4668140411376953,0.5402947664260864,0.1177408099174499,-0.2342599183320999,-0.2476222068071365,walking
1761303747338064400,-0.048434555530548,-0.4323024749755859,0.5755259394645691,0.0841442123055458,-0.2281514555215835,-0.2335727214813232,walking
1761303747348201000,-0.069097101688385,-0.35504150390625,0.549681544303894,0.0468825288116931,-0.2214321345090866,-0.2213557809591293,walking
1761303747358337800,-0.0454441905021667,-0.301945686340332,0.5393174886703491,0.0102316914126276,-0.2098260372877121,-0.2109713703393936,walking
1761303747368474400,-0.1022327542304992,-0.3132953643798828,0.5594720244407654,-0.0184781290590763,-0.2073826491832733,-0.1932567954063415,walking
1761303747378611200,-0.2149071395397186,-0.3435249328613281,0.6267329454421997,-0.0465771034359931,-0.2104368805885315,-0.1785964667797088,walking
1761303747388748000,-0.2478353083133697,-0.4258337020874023,0.6851179599761963,-0.0600157417356967,-0.2079934924840927,-0.1602710485458374,walking
1761303747398884900,-0.3038404583930969,-0.5361318588256836,0.8155237436294556,-0.0740652307868003,-0.197609081864357,-0.1419456303119659,walking
1761303747409021400,-0.2844719886779785,-0.5576562881469727,0.8903318047523499,-0.0978882759809494,-0.1701209545135498,-0.1309503763914108,walking
1761303747419158300,-0.3369132280349731,-0.5718908309936523,0.8695250749588013,-0.1211004704236984,-0.1566823273897171,-0.128506988286972,walking
1761303747429294800,-0.3745162487030029,-0.5907983779907227,0.9142800569534302,-0.1327065676450729,-0.1401894390583038,-0.1315612345933914,walking
1761303747439431700,-0.3716480135917663,-0.5809898376464844,0.9569891691207886,-0.1498102843761444,-0.1139230132102966,-0.129728689789772,walking
1761303747449568500,-0.4054954051971435,-0.5854339599609375,0.9121444821357728,-0.1650814712047577,-0.0888782739639282,-0.1199551299214363,walking
1761303747459705000,-0.4688241481781006,-0.5516595840454102,0.96373188495636,-0.1785201132297516,-0.0595576092600822,-0.1089598834514617,walking
1761303747469842000,-0.4858163595199585,-0.5274658203125,0.9564996361732484,-0.1919587552547454,-0.0375671051442623,-0.0924670025706291,walking
1761303747479978800,-0.5589274168014526,-0.5723476409912109,0.9656206965446472,-0.1950129866600036,-0.0186308417469263,-0.0778066664934158,walking
1761303747490115300,-0.638401985168457,-0.6120872497558594,1.0452929735183716,-0.20356485247612,-0.0113006746396422,-0.0576487109065055,walking
1761303747500252200,-0.723792314529419,-0.6491117477416992,1.0141795873641968,-0.2121167033910751,-0.0076355906203389,-0.0417666807770729,walking
1761303747510389000,-0.8174629211425781,-0.65960693359375,0.9365315437316896,-0.2273878902196884,-0.0100789796561002,-0.0258846525102853,walking
1761303747520525600,-0.8313001990318298,-0.5841989517211914,0.8378524780273438,-0.2286095917224884,-0.0296260919421911,-0.0100026242434978,walking
1761303747530662400,-0.8061723709106445,-0.4328880310058594,0.8762890696525574,-0.2212794125080108,-0.0546708293259143,0.0052685574628412,walking
1761303747540799200,-0.7992069125175476,-0.1965389251708984,0.8911899328231812,-0.2176143378019333,-0.0778830274939537,0.018096350133419,walking
1761303747550935800,-0.6810686588287354,0.0410652160644531,0.7863956689834595,-0.2237228155136108,-0.0876565799117088,0.0248156692832708,walking
1761303747561072600,-0.5504893064498901,0.3180665969848633,0.6433395743370056,-0.2310529798269271,-0.0882674306631088,0.0370326153934001,walking
1761303747571209500,-0.3694102466106415,0.5342597961425781,0.5928966999053955,-0.2408265322446823,-0.0705528557300567,0.049860406666994,walking
1761303747581346000,-0.1887567490339279,0.6804628372192383,0.5085951089859009,-0.2475458532571792,-0.0393996499478817,0.0700183659791946,walking
1761303747591483000,-0.0511713027954101,0.740229606628418,0.4961718022823334,-0.2218902707099914,-0.0021379655227065,0.0883437842130661,walking
1761303747601619700,0.155875414609909,0.7354536056518555,0.8496262431144714,-0.2078407853841781,0.0021379655227065,0.10178242623806,walking
1761303747611756300,0.1081173419952392,0.7404823303222656,0.372414082288742,-0.2316638231277465,0.0003054236294701,0.1146102175116539,walking
1761303747621893000,0.0888664424419403,0.7049751281738281,0.011852353811264,-0.2078407853841781,0.0088572856038808,0.118275299668312,walking
1761303747632030000,0.1782207787036895,0.4861650466918945,0.4068143367767334,-0.1742441803216934,-0.0015271181473508,0.1286597102880478,walking
1761303747642166500,-0.0029142498970031,0.1613073348999023,0.1596055030822754,-0.1693574041128158,-0.0271827038377523,0.1359898746013641,walking
1761303747652303400,-0.1640316247940063,0.0094432830810546,0.0574086904525756,-0.1363716572523117,-0.0253501608967781,0.1353790163993835,walking
1761303747662440200,-0.2144897878170013,-0.1560420989990234,0.2670575380325317,-0.119878776371479,-0.027793550863862,0.1323247849941253,walking
1761303747672576800,-0.3326588869094848,-0.2588300704956054,0.2044596672058105,-0.1162136942148208,-0.027793550863862,0.1207186877727508,walking
1761303747682713600,-0.405375063419342,-0.2778425216674804,0.2331076264381408,-0.1119377613067627,-0.023517619818449,0.1005607321858406,walking
1761303747692850400,-0.413987934589386,-0.2849607467651367,0.2072924971580505,-0.1070509850978851,-0.0204633828252553,0.0822353139519691,walking
1761303747702987000,-0.4348762035369873,-0.2469654083251953,0.142585813999176,-0.0923906490206718,-0.0284043978899717,0.0614665038883686,walking
1761303747713123800,-0.4402458369731903,-0.2236480712890625,0.1185888648033142,-0.0697892978787422,-0.0387887991964817,0.0492495596408844,walking
1761303747723260700,-0.4691451787948608,-0.214879035949707,0.0895451307296752,-0.0502421855926513,-0.0510057471692562,0.0455844774842262,walking
1761303747733397200,-0.5437554121017456,-0.1799545288085937,-0.0196991562843322,-0.0441337153315544,-0.0644443854689598,0.0504712536931037,walking
1761303747743534000,-0.5878198146820068,-0.1666164398193359,-0.1043152213096618,-0.0416903272271156,-0.0723854005336761,0.0578014217317104,walking
1761303747753671000,-0.5625443458557129,-0.1128740310668945,-0.0759268999099731,-0.0355818532407283,-0.0748287886381149,0.0571905747056007,walking
1761303747763807500,-0.4624183177947998,-0.0351428985595703,0.0024110674858093,-0.0343601591885089,-0.0656660795211792,0.0553580336272716,walking
1761303747773944300,-0.4516757726669311,-0.0175361633300781,0.0725212097167968,-0.0325276181101799,-0.0589467622339725,0.0620773509144783,walking
1761303747784081200,-0.5381091237068176,-0.05908203125,0.0972058773040771,-0.027640838176012,-0.0589467622339725,0.0669641271233558,walking
1761303747794217700,-0.5504104495048523,-0.012801170349121,0.0177000164985656,-0.0300842281430959,-0.0668877735733985,0.0694075226783752,walking
1761303747804354600,-0.4779418706893921,0.0491523742675781,-0.0410014986991882,-0.0239757541567087,-0.0772721767425537,0.0706292167305946,walking
1761303747814491100,-0.3880612254142761,0.0841455459594726,-0.1074521541595459,-0.0166455879807472,-0.0736070945858955,0.0730726048350334,walking
1761303747824628000,-0.3068951964378357,0.1185560226440429,-0.0973617434501648,-0.0154238929972052,-0.0699420124292373,0.0749051421880722,walking
1761303747834764800,-0.2034111618995666,0.1312437057495117,-0.0739634037017822,-0.0215323660522699,-0.0589467622339725,0.0742942988872528,walking
1761303747844901600,-0.1984986662864685,0.0848608016967773,-0.1329715251922607,-0.0178672820329666,-0.0632226914167404,0.0773485377430915,walking
1761303747855038200,-0.2313469350337982,0.0533504486083984,-0.150488793849945,-0.0129805039614439,-0.0650552362203598,0.0773485377430915,walking
1761303747865175000,-0.2594872415065765,0.036564826965332,-0.2342576086521148,-0.019088976085186,-0.0583359114825725,0.0834570080041885,walking
1761303747875311900,-0.2363538444042205,-0.0364503860473632,-0.0942898988723754,-0.0087045738473534,-0.0650552362203598,0.0932305604219436,walking
1761303747885448400,-0.2681044936180115,-0.0658454895019531,-0.0390555262565612,-0.0093154208734631,-0.0742179453372955,0.0962847992777824,walking
1761303747895585300,-0.0366167426109313,-0.0382719039916992,-0.1174357533454895,-0.0184781290590763,-0.0784938707947731,0.0816244632005691,walking
1761303747905721900,0.0319067239761352,-0.0229463577270507,-0.22090744972229,-0.0239757541567087,-0.0827698037028312,0.071240060031414,walking
1761303747915858700,0.00385582447052,-0.1233272552490234,-0.2821161448955536,-0.0184781290590763,-0.0791047215461731,0.0602448098361492,walking
1761303747925995500,-0.0264703631401062,-0.1867494583129882,-0.2378508448600769,-0.0099262678995728,-0.08521319180727,0.0639098957180976,walking
1761303747936132400,-0.1320546567440033,-0.2114467620849609,-0.2809917032718658,-0.0062611843459308,-0.0980409830808639,0.0675749778747558,walking
1761303747946269000,-0.1160973310470581,-0.1509246826171875,-0.3380726277828216,-0.0123696569353342,-0.1065928488969802,0.0700183659791946,walking
1761303747956405800,-0.1190446615219116,-0.1196889877319336,-0.3209315240383148,-0.0099262678995728,-0.1145338639616966,0.0675749778747558,walking
1761303747966542300,-0.1289864778518676,-0.1290111541748047,-0.315556913614273,-0.0068720318377017,-0.1127013191580772,0.0675749778747558,walking
1761303747976679200,-0.1655359864234924,-0.168705940246582,-0.2987320125102997,-0.0087045738473534,-0.1029277667403221,0.0773485377430915,walking
1761303747986816000,-0.2251835465431213,-0.153635025024414,-0.2648210525512695,0.0004581354442052,-0.1023169159889221,0.0791810750961303,walking
1761303747996952800,-0.156106412410736,-0.0352735519409179,-0.2336581349372863,0.0029015245381742,-0.091321662068367,0.0736834481358528,walking
1761303748007089400,-0.1815732717514038,-0.0130786895751953,-0.2904731631278991,-0.0007635590736754,-0.0907108187675476,0.0657424330711364,walking
1761303748017226200,-0.2276210188865661,0.051060676574707,-0.3030779659748077,0.008399149402976,-0.0907108187675476,0.0639098957180976,walking
1761303748027362800,-0.3199722468852997,0.0340604782104492,-0.303235113620758,0.0132859274744987,-0.0894891247153282,0.0639098957180976,walking
1761303748037499600,-0.3906236886978149,0.0385379791259765,-0.2763952314853668,0.0242811776697635,-0.0949867516756057,0.0742942988872528,walking
1761303748047636500,-0.434138536453247,-0.0041790008544921,-0.2423452734947204,0.0303896516561508,-0.0955975949764251,0.0736834481358528,walking
1761303748057773000,-0.3944540619850158,-0.0085811614990234,-0.2360044121742248,0.0419957488775253,-0.0937650576233863,0.0730726048350334,walking
1761303748067910000,-0.3810758590698242,-0.008249282836914,-0.2550240159034729,0.0487150698900222,-0.0925433561205864,0.0706292167305946,walking
1761303748078046700,-0.3374769985675812,-0.062082290649414,-0.3320579826831817,0.0542126931250095,-0.091321662068367,0.0724617540836334,walking
1761303748088183300,-0.3426515758037567,-0.1338939666748047,-0.3373732566833496,0.0762031972408294,-0.0974301397800445,0.0822353139519691,walking
1761303748098320100,-0.2941606938838959,-0.1479930877685547,-0.250085711479187,0.0835333615541458,-0.0962084457278251,0.0883437842130661,walking
1761303748108457000,-0.2276729345321655,-0.1524696350097656,-0.3069344162940979,0.0933069214224815,-0.0931542068719863,0.0889546349644661,walking
1761303748118593500,-0.2117646634578704,-0.1239089965820312,-0.3977831602096557,0.0963611528277397,-0.1035386100411415,0.0889546349644661,walking
1761303748128730400,-0.2102605104446411,-0.0888099670410156,-0.4691137075424194,0.111632339656353,-0.1108687743544578,0.0889546349644661,walking
1761303748138867200,-0.1831773519515991,-0.0637636184692382,-0.4758579134941101,0.1330119967460632,-0.1291942000389099,0.0913980230689048,walking
1761303748149004000,-0.1659725904464721,-0.032135009765625,-0.4895374774932861,0.1568350344896316,-0.138967752456665,0.0913980230689048,walking
1761303748159140600,-0.1026222109794616,-0.0128335952758789,-0.4692432880401611,0.188599094748497,-0.1493521481752395,0.0981173440814018,walking
1761303748169277400,-0.0907791256904602,-0.0032262802124023,-0.4750640392303467,0.2130329757928848,-0.1646233350038528,0.1085017472505569,walking
1761303748179414000,-0.0614154338836669,0.0816268920898437,-0.4734283685684204,0.2392994165420532,-0.1792836636304855,0.1201078444719314,walking
1761303748189550800,-0.0450049042701721,0.1415987014770507,-0.4693315625190735,0.263733297586441,-0.1945548504590988,0.1274380087852478,walking
1761303748199687700,-0.0105783343315124,0.1841993331909179,-0.4822776615619659,0.2820587158203125,-0.2031067162752151,0.1335464864969253,walking
1761303748209824300,-0.0242742300033569,0.172062873840332,-0.4952964186668396,0.3028275370597839,-0.2067717909812927,0.1390441060066223,walking
1761303748219961000,-0.0146366953849792,0.1555652618408203,-0.4825131297111511,0.3242071866989136,-0.1994416266679763,0.1445417255163192,walking
1761303748230098000,-0.0427271127700805,0.3654251098632812,-0.2804911732673645,0.3816268146038055,-0.2318165302276611,0.1439308822154998,walking
1761303748240234800,-0.1640099883079528,0.7696533203125,0.1612173616886139,0.4353813827037811,-0.2367033064365387,0.1396549493074417,walking
1761303748250371300,-0.3304899036884308,1.1438302993774414,0.2081797271966934,0.4005630910396576,-0.1908897757530212,0.1420983374118805,walking
1761303748260508200,-0.0932796001434326,1.450667381286621,-0.2467617690563202,0.3358132839202881,-0.1212531775236129,0.1353790163993835,walking
1761303748270644700,0.4147652387619018,1.6772480010986328,-0.1667140424251556,0.3174878656864166,-0.0473406612873077,0.1420983374118805,walking
1761303748280781600,0.6437864303588867,1.7284841537475586,0.1867628097534179,0.263733297586441,-0.0174091476947069,0.1640888452529907,walking
1761303748290918400,0.5128474831581116,1.7695684432983398,-0.0167819485068321,0.2148655205965042,0.0131332157179713,0.1701973229646682,walking
1761303748301055200,0.5761932134628296,1.59283447265625,0.289546251296997,0.2057028114795684,0.0393996499478817,0.1592020690441131,walking
1761303748311191800,0.5499547123908997,1.1829471588134766,0.7181736826896667,0.1739387512207031,0.0204633828252553,0.1463742703199386,walking
1761303748321328600,0.3568498492240906,0.7815389633178711,0.4194388389587402,0.1415638476610183,0.0045813545584678,0.1225512325763702,walking
1761303748331465500,0.2266319990158081,0.2907342910766601,0.5288054943084717,0.1091889441013336,0.0106898266822099,0.0968956500291824,walking
1761303748341602000,0.1341357827186584,-0.2580642700195312,0.6054206490516663,0.0713164210319519,0.0076355906203389,0.0822353139519691,walking
1761303748351739000,-0.0853644609451294,-0.6738214492797852,0.7032719850540161,0.0474933758378028,0.0051922015845775,0.0675749778747558,walking
1761303748361875500,-0.2073269486427307,-1.009521484375,0.7975860834121704,0.0163401644676923,0.0149657577276229,0.0541363395750522,walking
1761303748372012300,-0.2351609468460083,-1.1580610275268557,0.6688170433044434,-0.0160347409546375,0.023517619818449,0.0474170185625553,walking
1761303748382149000,-0.2611111998558044,-1.2416067123413086,0.6884374618530273,-0.0160347409546375,0.0216850768774747,0.0535254925489425,walking
1761303748392286000,-0.3508388996124267,-1.269794464111328,0.7572885751724243,-0.0019852535333484,0.0021379655227065,0.0724617540836334,walking
1761303748402422500,-0.3776261806488037,-1.216599464416504,0.7310937643051147,0.0022906772792339,-0.016798298805952,0.0907871723175048,walking
1761303748412559400,-0.3988800048828125,-1.0298480987548828,0.5949354767799377,-0.0038177953101694,-0.0436755791306495,0.1085017472505569,walking
1761303748422696200,-0.3395360112190246,-0.7912263870239258,0.5309967398643494,-0.0038177953101694,-0.0589467622339725,0.1146102175116539,walking
1761303748432832800,-0.312612235546112,-0.586735725402832,0.5786803960800171,-0.0123696569353342,-0.0693311616778373,0.1268271654844284,walking
1761303748442969600,-0.2843696475028991,-0.4258184432983398,0.6634483337402344,-0.0215323660522699,-0.0668877735733985,0.1366007179021835,walking
1761303748453106400,-0.2210463285446167,-0.2486991882324218,0.7427650690078735,-0.0258082970976829,-0.0693311616778373,0.142709195613861,walking
1761303748463243000,-0.1077378392219543,-0.1318473815917968,0.8141701221466064,-0.0300842281430959,-0.0626118406653404,0.1414874941110611,walking
1761303748473379800,0.0217970609664917,-0.0869483947753906,0.8330423831939697,-0.0270299911499023,-0.0516165941953659,0.1420983374118805,walking
1761303748483516700,0.1435880661010742,-0.1065902709960937,0.8345579504966736,-0.0319167710840702,-0.0400104969739913,0.1433200389146804,walking
1761303748493653200,0.2144836187362671,-0.135655403137207,0.8277947306632996,-0.0423011742532253,-0.0302369389683008,0.1469851285219192,walking
1761303748503790000,0.340849757194519,-0.1813945770263672,0.8398210406303406,-0.0453554093837738,-0.0271827038377523,0.1384332627058029,walking
1761303748513927000,0.4196125268936157,-0.2556495666503906,0.9036327600479126,-0.0526855774223804,-0.0314586348831653,0.1329356282949447,walking
1761303748524063500,0.5162152051925659,-0.3130826950073242,0.8657881617546082,-0.0441337153315544,-0.0571142174303531,0.118886150419712,walking
1761303748534200300,0.5840610265731812,-0.3181276321411133,0.7933396697044373,-0.0569615066051483,-0.0497840531170368,0.0926197171211242,walking
1761303748544337200,0.6756256818771362,-0.2757253646850586,0.7252684831619263,-0.0642916709184646,-0.055281676352024,0.0675749778747558,walking
1761303748554473700,0.7180500030517578,-0.2383813858032226,0.7719592452049255,-0.066124215722084,-0.0699420124292373,0.0547471866011619,walking
1761303748564610600,0.5656522512435913,-0.1821918487548828,0.6670981645584106,-0.0777303129434585,-0.0742179453372955,0.0449736304581165,walking
1761303748574747400,0.514346718788147,-0.0498781204223632,0.6128448843955994,-0.0771194696426391,-0.0803264155983924,0.041308544576168,walking
1761303748584884000,0.5128359794616699,0.1202297210693359,0.5659568905830383,-0.0758977755904197,-0.0711637064814567,0.0461953245103359,walking
1761303748595020800,0.4928432703018188,0.2562952041625976,0.4471408128738403,-0.0801737010478973,-0.0632226914167404,0.0400868505239486,walking
1761303748605157600,0.5036345720291138,0.4014968872070312,0.397914856672287,-0.0795628577470779,-0.0571142174303531,0.0431410893797874,walking
1761303748615294200,0.3848801851272583,0.4580240249633789,0.3675079345703125,-0.0826170891523361,-0.0455081202089786,0.049860406666994,walking
1761303748625431000,0.2688486576080322,0.5477886199951172,0.3990368843078613,-0.0844496339559555,-0.0430647321045398,0.0504712536931037,walking
1761303748635567900,0.1940709352493286,0.5990581512451172,0.4638205766677856,-0.0832279399037361,-0.0290152449160814,0.0474170185625553,walking
1761303748645704400,0.2013996839523315,0.6023578643798828,0.571240246295929,-0.0813953951001167,-0.0058030490763485,0.0400868505239486,walking
1761303748655841300,0.0921550989151001,0.5101757049560547,0.6153568625450134,-0.0875038728117942,0.019241688773036,0.0364217683672905,walking
1761303748665978000,0.0117417573928833,0.356297492980957,0.6110345125198364,-0.089947260916233,0.0461189672350883,0.0382543094456195,walking
1761303748676114700,-0.0381503105163574,0.2054243087768554,0.6161150932312012,-0.0887255668640136,0.0687966719269752,0.0461953245103359,walking
1761303748686251500,0.0067006349563598,-0.0426549911499023,0.5701693296432495,-0.0936123430728912,0.1023932695388794,0.0553580336272716,walking
1761303748696388400,0.1463010311126709,-0.1776676177978515,0.5133373737335205,-0.1039967462420463,0.1396549493074417,0.0614665038883686,walking
1761303748706525000,0.1816737651824951,-0.3788747787475586,0.4338113665580749,-0.1156028434634208,0.1598129123449325,0.0736834481358528,walking
1761303748716661800,0.2098852396011352,-0.4744071960449219,0.4106580018997192,-0.1247655525803566,0.179360032081604,0.0730726048350334,walking
1761303748726798600,0.3355406522750854,-0.5480737686157227,0.4415857791900635,-0.1314848661422729,0.195852905511856,0.0767376869916915,walking
1761303748736935400,0.3746438026428222,-0.6500692367553711,0.4502497911453247,-0.1363716572523117,0.2111240774393081,0.0797919258475303,walking
1761303748747072000,0.3654612302780151,-0.6895980834960938,0.3846777677536011,-0.1382041871547699,0.2141783237457275,0.0846787020564079,walking
1761303748757208800,0.3795011043548584,-0.7384262084960938,0.3097788989543915,-0.1375933438539505,0.2172325551509857,0.0920088663697242,walking
1761303748767345400,0.3618526458740234,-0.777461051940918,0.2456302791833877,-0.1278197914361953,0.2160108685493469,0.0987281873822212,walking
1761303748777482200,0.3243168592453003,-0.8043136596679688,0.2445719242095947,-0.1186570823192596,0.2196759432554245,0.1078908964991569,walking
1761303748787619000,0.4158840179443359,-0.7404079437255859,0.2732146382331848,-0.1070509850978851,0.224562719464302,0.1072800531983375,walking
1761303748797756000,0.4434356689453125,-0.6147623062133789,0.2792163491249084,-0.0930014923214912,0.2282278090715408,0.1005607321858406,walking
1761303748807892500,0.4378111362457275,-0.4919166564941406,0.2802436053752899,-0.0923906490206718,0.2447206825017929,0.0981173440814018,walking
1761303748818029300,0.4172874689102173,-0.343301773071289,0.2238655686378479,-0.0850604772567749,0.2544942498207092,0.095063105225563,walking
1761303748828166100,0.4589313268661499,-0.1807384490966797,0.1919385492801666,-0.0832279399037361,0.2673220336437225,0.0895654782652854,walking
1761303748838302700,0.490945816040039,-0.0585851669311523,0.1934225857257843,-0.0826170891523361,0.2746522128582001,0.0852895453572273,walking
1761303748848439600,0.4783698320388794,0.047342300415039,0.213690310716629,-0.0807845517992973,0.2862583100795746,0.0791810750961303,walking
1761303748858576400,0.4483819007873535,0.1395769119262695,0.2432884871959686,-0.0758977755904197,0.2990860939025879,0.0675749778747558,walking
1761303748868713000,0.5074441432952881,0.1570892333984375,0.2328280508518219,-0.0691784545779228,0.3100813329219818,0.0535254925489425,walking
1761303748878849800,0.4631432294845581,0.1458864212036132,0.2135971188545227,-0.0624591335654258,0.3198548853397369,0.0419193916022777,walking
1761303748888986600,0.4638063907623291,0.1063385009765625,0.1575823128223419,-0.0551289655268192,0.327795922756195,0.0235939752310514,walking
1761303748899123200,0.4072576761245727,0.0530824661254882,0.0932998955249786,-0.0520747303962707,0.3314609825611114,0.0071010994724929,walking
1761303748909260000,0.3691155910491943,-0.0512332916259765,0.0164180099964141,-0.0471879504621028,0.3314609825611114,-0.0026724566705524,walking
1761303748919396900,0.2664294242858886,-0.1374311447143554,-0.0757758915424346,-0.0484096445143222,0.3302392959594726,-0.0100026242434978,walking
1761303748929533400,0.2197716236114502,-0.2669668197631836,-0.2034568786621093,-0.042912021279335,0.3222982883453369,-0.0118351653218269,walking
1761303748939670300,0.2093565464019775,-0.3497400283813476,-0.2371698915958404,-0.0196998249739408,0.31313556432724,-0.0136677073314785,walking
1761303748949807000,0.1350512504577636,-0.4192838668823242,-0.211469829082489,-0.0209215190261602,0.3051945567131042,-0.0087809292599558,walking
1761303748959943700,0.0194418430328369,-0.445281982421875,-0.3129984736442566,-0.0154238929972052,0.3192440569400787,-0.0063375402241945,walking
1761303748970080500,0.0847599506378173,-0.4285993576049804,-0.0876688361167907,0.012675080448389,0.3247416615486145,-0.0069483877159655,walking
1761303748980217300,0.2056983709335327,-0.3605098724365234,0.0178579986095428,0.0267245676368474,0.3039728701114654,-0.0100026242434978,walking
1761303748990354200,0.1584080457687378,-0.314910888671875,-0.3086002767086029,0.0303896516561508,0.2874799966812134,-0.0203870274126529,walking
1761303749000490800,0.2302795648574829,-0.2609024047851562,-0.405060350894928,0.0590994730591774,0.2538833916187286,-0.028938889503479,walking
1761303749010627600,0.2935521602630615,-0.3278493881225586,-0.3223458230495453,0.0645971000194549,0.2215084880590438,-0.0271063465625047,walking
1761303749020764400,0.2663635015487671,-0.3702239990234375,-0.3898251056671142,0.0823116675019264,0.2111240774393081,-0.0283280424773693,walking
1761303749030901000,0.3698848485946655,-0.3038139343261719,-0.2441778779029846,0.1073564067482948,0.2062373012304306,-0.0368799045681953,walking
1761303749041037800,0.5148671865463257,-0.2763214111328125,-0.1638289839029312,0.1128540337085723,0.1946312040090561,-0.046042613685131,walking
1761303749051174700,0.4867933988571167,-0.2070674896240234,-0.2878367304801941,0.1073564067482948,0.195852905511856,-0.0588704049587249,walking
1761303749061311200,0.5574952363967896,-0.1651172637939453,-0.4289816617965698,0.1030804738402366,0.1927986592054367,-0.0778066664934158,walking
1761303749071448000,0.7042367458343506,-0.1077384948730468,-0.4526680707931518,0.1238492801785469,0.1854684948921203,-0.0979646295309066,walking
1761303749081585000,0.7433751821517944,-0.1434097290039062,-0.3201272487640381,0.1745496094226837,0.1659213900566101,-0.1071273386478424,walking
1761303749091721500,0.6785308122634888,-0.209207534790039,-0.2853209674358368,0.2063136547803878,0.1457634270191192,-0.1107924208045005,walking
1761303749101858300,0.5287823677062988,-0.2784271240234375,-0.4380117058753967,0.2166980654001236,0.1170536056160926,-0.099186323583126,walking
1761303749111995100,0.4591513872146606,-0.2640562057495117,-0.6224828958511353,0.2215848416090011,0.0816244632005691,-0.099797174334526,walking
1761303749122131700,0.4355785846710205,-0.181645393371582,-0.6612288951873779,0.2295258641242981,0.038177952170372,-0.1028514057397842,walking
1761303749132268500,0.3588898181915283,-0.2183742523193359,-0.5914018750190735,0.2460187375545501,0.0106898266822099,-0.1101815775036811,walking
1761303749142405400,0.3381795883178711,-0.2498006820678711,-0.4813453555107116,0.2576248347759247,-0.0070247435942292,-0.1162900477647781,walking
1761303749152542200,0.2861915826797485,-0.2078504562377929,-0.4633056223392486,0.2728960216045379,-0.0186308417469263,-0.1303395330905914,walking
1761303749162678800,0.2411239147186279,-0.1384592056274414,-0.4885569512844085,0.28938889503479,-0.0296260919421911,-0.1443890184164047,walking
1761303749172815600,0.1931654214859008,-0.0467243194580078,-0.5030081272125244,0.2991624474525451,-0.0314586348831653,-0.1553842723369598,walking
1761303749182952400,0.1507877111434936,0.0247726440429687,-0.4673596024513244,0.3034383654594421,-0.032069481909275,-0.1559951156377792,walking
1761303749193089000,0.0930638313293457,0.1398801803588867,-0.5035817623138428,0.2967190444469452,-0.0314586348831653,-0.1602710485458374,walking
1761303749203225900,0.0324400663375854,0.2248353958129882,-0.5553415417671204,0.2991624474525451,-0.038177952170372,-0.1688229143619537,walking
1761303749213362700,0.0757914781570434,0.3106365203857422,-0.5209463238716125,0.3040492236614227,-0.0424538850784301,-0.1865374743938446,walking
1761303749223499300,0.1414825916290283,0.3549032211303711,-0.4666213989257812,0.319320410490036,-0.0558925233781337,-0.2054737508296966,walking
1761303749233636000,0.1127287149429321,0.3466911315917969,-0.5193347930908203,0.3205420970916748,-0.0314586348831653,-0.2140256017446518,walking
1761303749243773000,0.0498042106628418,0.2798728942871094,-0.4641887545585632,0.3321481943130493,-0.0241284668445587,-0.2207449227571487,walking
1761303749253909500,-0.0032986402511596,0.1626806259155273,-0.3381167948246002,0.3455868363380432,-0.016798298805952,-0.2140256017446518,walking
1761303749264046300,-0.074338674545288,0.099456787109375,-0.3401039540767669,0.3578037917613983,-0.0149657577276229,-0.2140256017446518,walking
1761303749274183200,-0.0784914493560791,0.0351753234863281,-0.3768007457256317,0.3633013963699341,-0.0174091476947069,-0.211582213640213,walking
1761303749284319700,-0.0423246622085571,-0.020721435546875,-0.3945628702640533,0.3810159862041473,-0.027793550863862,-0.2134147584438324,walking
1761303749294456600,-0.0604474544525146,-0.0141372680664062,-0.2127794921398162,0.4182776510715484,-0.0485623553395271,-0.2170798480510711,walking
1761303749304593400,-0.2184280157089233,0.0890569686889648,0.0077103078365325,0.4329380095005035,-0.0742179453372955,-0.2268534004688263,walking
1761303749314730000,-0.3649202585220337,0.3387136459350586,0.0261454582214355,0.4011739492416382,-0.0827698037028312,-0.2445679754018783,walking
1761303749324866800,-0.4050555825233459,0.6403188705444336,-0.142300546169281,0.3443651497364044,-0.0998735278844833,-0.2708344161510467,walking
1761303749335003600,-0.3001788854598999,0.9176015853881836,-0.1485791802406311,0.28694549202919,-0.1108687743544578,-0.3013767600059509,walking
1761303749345140500,-0.1112701892852783,1.0461740493774414,0.0074895024299621,0.2356343269348144,-0.1169772520661354,-0.3349733650684356,walking
1761303749355277000,0.1073671579360961,1.060016632080078,0.3827337920665741,0.210589587688446,-0.1078145429491996,-0.366737425327301,walking
1761303749365414000,0.1527981758117675,0.9544000625610352,0.8706362843513489,0.2038702666759491,-0.0827698037028312,-0.3850628435611725,walking
1761303749375550700,0.0927798748016357,0.8275566101074219,1.1651827096939087,0.1702736765146255,-0.0736070945858955,-0.3826194405555725,walking
1761303749385687300,-0.111151099205017,0.8060197830200195,1.0530128479003906,0.1201841980218887,-0.091321662068367,-0.3728458881378174,walking
1761303749395824000,-0.2481531500816345,0.8704900741577148,0.8570369482040405,0.0871984437108039,-0.1316375881433487,-0.3649048805236816,walking
1761303749405961000,-0.2308681011199951,0.9063472747802734,0.8637861013412476,0.0768140405416488,-0.1682884246110916,-0.3490228652954101,walking
1761303749416097500,-0.2077101469039917,0.7203197479248047,0.8682588338851929,0.0548235401511192,-0.1640124917030334,-0.3123720288276672,walking
1761303749426234400,-0.1494251489639282,0.5352001190185547,0.7373482584953308,0.0389415137469768,-0.1585148572921753,-0.258006602525711,walking
1761303749436371200,-0.0116916298866271,0.4799156188964844,0.642932116985321,0.021226942539215,-0.1230857223272323,-0.1963110417127609,walking
1761303749446508000,0.1704463362693786,0.3583927154541015,0.7043746113777161,0.0053449133411049,-0.0699420124292373,-0.1217876747250557,walking
1761303749456644600,0.3130679130554199,0.0632762908935546,0.7460808753967285,-0.0184781290590763,-0.0021379655227065,-0.046042613685131,walking
1761303749466781400,0.393595278263092,-0.3119726181030273,0.8299928307533264,-0.0441337153315544,0.0681858286261558,0.0174855031073093,walking
1761303749476918300,0.361563503742218,-0.6575307846069336,0.7541065216064453,-0.0850604772567749,0.1109451353549957,0.0639098957180976,walking
1761303749487054800,0.2635365724563598,-0.9473628997802734,0.6943128705024719,-0.1162136942148208,0.1268271654844284,0.0791810750961303,walking
1761303749497191700,0.1293542981147766,-1.1984729766845703,0.6257811784744263,-0.1345391124486923,0.1152210608124733,0.0620773509144783,walking
1761303749507328500,-0.1877211332321167,-1.399083137512207,0.6875449419021606,-0.1485885977745056,0.0926197171211242,0.033367533236742,walking
1761303749517465000,-0.4797908961772918,-1.4730138778686523,0.7225673198699951,-0.1553079187870025,0.0479515083134174,-0.0148894023150205,walking
1761303749527602000,-0.6708785891532898,-1.3202123641967771,0.777149498462677,-0.1534753739833831,0.0015271181473508,-0.0594812519848346,walking
1761303749537738800,-0.7711441516876221,-1.0773448944091797,0.7913954257965088,-0.1534753739833831,-0.0503949001431465,-0.1004080176353454,walking
1761303749547875600,-0.8139089345932007,-0.7254705429077148,0.7231748104095459,-0.1687465608119964,-0.0870457366108894,-0.1217876747250557,walking
1761303749558012200,-0.8197993636131287,-0.3770275115966797,0.6960644721984863,-0.1901262104511261,-0.0974301397800445,-0.1309503763914108,walking
1761303749568149000,-0.7325271964073181,-0.0485906600952148,0.7060442566871643,-0.2017323076725006,-0.0937650576233863,-0.1315612345933914,walking
1761303749578285800,-0.5330371260643005,0.3291854858398437,0.8493740558624268,-0.2041756957769394,-0.0797155648469924,-0.1346154659986496,walking
1761303749588422400,-0.4951717257499695,0.7061281204223633,0.9441478848457336,-0.2066190838813781,-0.0534491352736949,-0.1248419061303138,walking
1761303749598559200,-0.459717333316803,1.056047439575195,0.9785597324371338,-0.2090624719858169,-0.027793550863862,-0.1028514057397842,walking
1761303749608696000,-0.3601341247558594,1.3431949615478516,0.8424614667892456,-0.2163926362991333,-0.0064138961024582,-0.0771958231925964,walking
1761303749618832600,-0.2123883664608001,1.5009746551513672,0.6799088716506958,-0.2206685692071914,0.0088572856038808,-0.0362690575420856,walking
1761303749628969500,-0.0985931754112243,1.455754280090332,0.5821748375892639,-0.220057725906372,0.027793550863862,0.0125987250357866,walking
1761303749639106300,0.0705814957618713,1.2103776931762695,0.4967515766620636,-0.2170034945011139,0.0540599822998046,0.0523037947714328,walking
1761303749649243000,0.1022796630859375,0.8010921478271484,0.5207410454750061,-0.2225011140108108,0.0694075226783752,0.0852895453572273,walking
1761303749659379700,0.0796530842781066,0.2854776382446289,0.4734215140342712,-0.2408265322446823,0.0938414111733436,0.10178242623806,walking
1761303749669516500,-0.0012518167495727,-0.1594371795654297,0.4624217748641968,-0.2353289127349853,0.1164427623152732,0.1115559786558151,walking
1761303749679653000,-0.0145163536071777,-0.6175012588500977,0.8083065152168274,-0.2261662036180496,0.0975064933300018,0.1066692024469375,walking
1761303749689790000,-0.3082762658596039,-0.9598360061645508,0.5075479745864868,-0.2383831441402435,0.0644443854689598,0.095063105225563,walking
1761303749699926800,-0.5540752410888672,-1.126978874206543,0.0406781136989593,-0.2151709496974945,0.0094681326299905,0.0779593810439109,walking
1761303749710063600,-0.6234199404716492,-1.155146598815918,0.2936739027500152,-0.173633337020874,-0.0644443854689598,0.064520739018917,walking
1761303749720200200,-0.7879176735877991,-1.1831779479980469,0.3621771931648254,-0.1522536724805832,-0.1041494607925415,0.0632990449666976,walking
1761303749730337000,-0.9433472752571106,-1.125213623046875,0.3678843080997467,-0.1333174109458923,-0.0998735278844833,0.048027865588665,walking
1761303749740473900,-0.7882782816886902,-0.938572883605957,0.5213338732719421,-0.1363716572523117,-0.0986518338322639,0.0272590592503547,walking
1761303749750610400,-0.7439355254173279,-0.6641721725463867,0.3965712189674377,-0.143701821565628,-0.0870457366108894,0.0077119464986026,walking
1761303749760747300,-0.6017811894416809,-0.428812026977539,0.3659389019012451,-0.1363716572523117,-0.0809372588992118,-0.0167219433933496,walking
1761303749770884000,-0.5830245614051819,-0.3063125610351562,0.3663416504859924,-0.113159455358982,-0.0815481096506118,-0.0283280424773693,walking
1761303749791157500,-0.6478762626647949,-0.1526365280151367,0.4827316999435425,-0.0245866030454635,-0.0882674306631088,-0.028938889503479,walking
1761303749801294300,-0.7275179028511047,-0.0592756271362304,0.3841480016708374,-0.0013744062744081,-0.0955975949764251,-0.022219568490982,walking
1761303749811431200,-0.8168654441833496,0.0434417724609375,0.270113468170166,0.008399149402976,-0.1035386100411415,-0.0185544863343238,walking
1761303749821567700,-0.8421111106872559,0.1626710891723632,0.1975194811820984,0.013896775431931,-0.1059819981455802,-0.0124460132792592,walking
1761303749831704600,-0.8054397106170654,0.2219142913818359,0.199091374874115,0.0132859274744987,-0.108425386250019,-0.0100026242434978,walking
1761303749841841400,-0.7695926427841187,0.288217544555664,0.2285456210374832,0.0059557608328759,-0.1023169159889221,-0.0026724566705524,walking
1761303749851978000,-0.7011353969573975,0.3496150970458984,0.221153050661087,-0.0032069480512291,-0.0962084457278251,0.0046577104367315,walking
1761303749862114800,-0.5762708187103271,0.3679208755493164,0.2612479329109192,-0.0056503373198211,-0.0888782739639282,0.0119878770783543,walking
1761303749872251600,-0.4955069124698639,0.3026580810546875,0.2443323582410812,-0.0007635590736754,-0.0772721767425537,0.0199288912117481,walking
1761303749882388200,-0.4400568008422851,0.1277790069580078,0.2362419366836547,-0.0074828788638114,-0.062000997364521,0.0321458354592323,walking
1761303749892525000,-0.4189272224903106,-0.0728826522827148,0.2302056550979614,-0.0099262678995728,-0.0455081202089786,0.0394760034978389,walking
1761303749902662000,-0.4150653481483459,-0.2085390090942382,0.2281035780906677,-0.0178672820329666,-0.0351237170398235,0.0443627834320068,walking
1761303749912798700,-0.4331317842006683,-0.3247327804565429,0.2272380739450454,-0.0294733811169862,-0.0339020229876041,0.0486387126147747,walking
1761303749922935300,-0.4198590219020843,-0.4311161041259765,0.2130868732929229,-0.0435228683054447,-0.0400104969739913,0.0461953245103359,walking
1761303749933072100,-0.413749098777771,-0.5181379318237305,0.1167258247733116,-0.0563506595790386,-0.0711637064814567,0.0461953245103359,walking
1761303749943209000,-0.3840221166610718,-0.5237398147583008,0.0313182175159454,-0.0685676038265228,-0.0681094676256179,0.0486387126147747,walking
1761303749953345500,-0.2740727066993713,-0.5220804214477539,0.0331460610032081,-0.0587940476834774,-0.0791047215461731,0.0578014217317104,walking
1761303749963482400,-0.2327740490436554,-0.4988174438476562,0.1878579258918762,-0.0587940476834774,-0.08521319180727,0.0730726048350334,walking
1761303749973619200,-0.2855669558048248,-0.4062891006469726,0.1434797346591949,-0.0636808276176452,-0.0833806544542312,0.0816244632005691,walking
1761303749983755800,-0.2294661700725555,-0.2470388412475586,0.1204153895378112,-0.066735066473484,-0.0839914977550506,0.0926197171211242,walking
1761303749993892600,-0.2047414779663086,-0.1383113861083984,0.0923537462949752,-0.0691784545779228,-0.0778830274939537,0.094452254474163,walking
1761303750004029400,-0.2020012736320495,-0.0536870956420898,0.0844143629074096,-0.0594048947095871,-0.0742179453372955,0.0987281873822212,walking
1761303750014166300,-0.2882346212863922,-0.0480155944824218,0.0844012573361396,-0.0520747303962707,-0.0754396393895149,0.1048366576433181,walking
1761303750024302800,-0.3341994881629944,-0.0399150848388671,0.0705650150775909,-0.0471879504621028,-0.0772721767425537,0.1103342846035957,walking
1761303750034439700,-0.4374794363975525,-0.0294141769409179,0.0176586210727691,-0.0331384651362896,-0.0894891247153282,0.1115559786558151,walking
1761303750044576500,-0.477683812379837,-0.0094280242919921,-0.0462280921638011,-0.0251974500715732,-0.0937650576233863,0.1042258143424987,walking
1761303750054713000,-0.5127652883529663,-0.0539731979370117,-0.0560156293213367,-0.0117588099092245,-0.1017060652375221,0.10178242623806,walking
1761303750064850000,-0.5645316243171692,-0.1533031463623047,-0.0582410022616386,0.0157293174415826,-0.1059819981455802,0.1023932695388794,walking
1761303750074986800,-0.6267374157905579,-0.2451171875,-0.0969606786966323,0.0322221927344799,-0.1145338639616966,0.1127776727080345,walking
1761303750085123300,-0.6800044775009155,-0.2673549652099609,-0.1672799885272979,0.0487150698900222,-0.1261399537324905,0.1207186877727508,walking
1761303750095260200,-0.7005297541618347,-0.2631654739379883,-0.1781276017427444,0.0676513314247131,-0.137746050953865,0.1292705535888672,walking
1761303750105397000,-0.6093392372131348,-0.2421808242797851,-0.1843793094158172,0.0884201377630233,-0.1511846929788589,0.1353790163993835,walking
1761303750115533800,-0.5637900829315186,-0.2697591781616211,-0.2465890944004058,0.1134648770093917,-0.1597365587949752,0.1457634270191192,walking
1761303750125670400,-0.490990936756134,-0.2685384750366211,-0.3210132122039795,0.1452289372682571,-0.1756185889244079,0.1488176584243774,walking
1761303750135807200,-0.3800283074378967,-0.2295360565185547,-0.3942835927009582,0.1672194302082061,-0.1902789175510406,0.1561478376388549,walking
1761303750145944000,-0.3773724138736725,-0.1933956146240234,-0.4596208035945892,0.1867665499448776,-0.2012741714715957,0.1622563004493713,walking
1761303750156080600,-0.3937280774116516,-0.1647968292236328,-0.4537543654441833,0.2038702666759491,-0.2208212912082672,0.1646996885538101,walking
1761303750166217500,-0.3889467120170593,-0.1271247863769531,-0.487095296382904,0.2124221324920654,-0.2287622988224029,0.1689756214618683,walking
1761303750176354300,-0.4297586977481842,-0.0946044921875,-0.5120587944984436,0.2191414535045623,-0.2391466945409774,0.178138330578804,walking
1761303750186491000,-0.4327678382396698,-0.0789470672607421,-0.4937876462936401,0.2228065431118011,-0.2470877170562744,0.1848576515913009,walking
1761303750196627700,-0.3511077761650085,0.0024576187133789,-0.4434966146945953,0.217308908700943,-0.2342599183320999,0.1866901963949203,walking
1761303750206764500,-0.320953369140625,0.1931114196777343,-0.2522176504135132,0.2221956849098205,-0.2428117841482162,0.1708081662654876,walking
1761303750216901400,-0.411411702632904,0.681828498840332,0.1864806562662124,0.2331909388303756,-0.239757552742958,0.1475959718227386,walking
1761303750227038000,-0.4965902268886566,1.0750179290771484,0.2034504562616348,0.187377393245697,-0.2000524699687957,0.1317139416933059,walking
1761303750237174800,-0.2337291240692138,1.374281883239746,-0.094032347202301,0.1330119967460632,-0.1450762301683426,0.1237729266285896,walking
1761303750247311600,0.1738447546958923,1.5861940383911133,-0.0650630891323089,0.1024696305394172,-0.0980409830808639,0.1378224194049835,walking
1761303750257448200,0.4210720062255859,1.695937156677246,0.2182488143444061,0.0878092944622039,-0.0577250644564628,0.1653105467557907,walking
1761303750267585000,0.5472960472106934,1.684326171875,0.4800460934638977,0.0664296373724937,-0.021074229851365,0.1860793530941009,walking
1761303750277721900,0.5174362659454346,1.5222578048706057,0.6571470499038696,0.0389415137469768,-0.0094681326299905,0.1909661293029785,walking
1761303750287858400,0.4862780570983886,1.2337703704833984,0.7628397941589355,-0.0019852535333484,-0.0064138961024582,0.1805817186832428,walking
1761303750297995300,0.4294695854187011,0.8476228713989258,0.6922343969345093,-0.0435228683054447,-0.0100789796561002,0.1512610465288162,walking
1761303750308132000,0.3543095588684082,0.3307104110717773,0.6987613439559937,-0.0642916709184646,-0.0296260919421911,0.1219403818249702,walking
1761303750318269000,0.0756555795669555,-0.2519483566284179,0.807840883731842,-0.0685676038265228,-0.0571142174303531,0.1060583516955375,walking
1761303750328405500,-0.3247682452201843,-0.7996749877929688,0.8008448481559753,-0.0820062458515167,-0.0711637064814567,0.1133885234594345,walking
1761303750338542300,-0.5774793028831482,-1.1261110305786133,0.7328441739082336,-0.0710109919309616,-0.0681094676256179,0.1268271654844284,walking
1761303750348679200,-0.602385401725769,-1.2365198135375977,1.057194709777832,-0.0685676038265228,-0.0925433561205864,0.1488176584243774,walking
1761303750358815700,-0.6015728712081909,-1.093461036682129,0.6942410469055176,-0.0832279399037361,-0.1218640282750129,0.1561478376388549,walking
1761303750368952600,-0.3799164891242981,-0.7406425476074219,0.4367516338825226,-0.0679567605257034,-0.1505738496780395,0.1457634270191192,walking
1761303750379089400,-0.2368743419647216,-0.4865684509277344,0.6867449283599854,-0.0447445623576641,-0.2037175595760345,0.1402658075094223,walking
1761303750389226000,-0.2875422239303589,-0.3214025497436523,0.6492633819580078,-0.0264191441237926,-0.2263189107179641,0.1402658075094223,walking
1761303750399362800,-0.3386762738227844,-0.2233896255493164,0.9018035531044006,-0.0154238929972052,-0.2134911119937896,0.1457634270191192,walking
1761303750409499600,-0.2536941766738891,-0.142313003540039,1.029261827468872,-0.0160347409546375,-0.1939440071582794,0.1463742703199386,walking
1761303750419636500,-0.1474713087081909,-0.0136775970458984,0.9958000183105468,-0.019088976085186,-0.167677566409111,0.1457634270191192,walking
1761303750429773000,-0.0675667524337768,0.0286502838134765,0.964674949645996,-0.0178672820329666,-0.1450762301683426,0.142709195613861,walking
1761303750439910000,0.0333538055419921,-0.0102577209472656,0.9124038219451904,-0.0142021989449858,-0.1359135210514068,0.1451525837182998,walking
1761303750450046700,0.1095852851867675,-0.1348714828491211,0.9053218960762024,0.0090099973604083,-0.1163664013147354,0.1500393599271774,walking
1761303750460183300,0.2439031600952148,-0.2636919021606445,0.9617465734481812,0.0242811776697635,-0.1059819981455802,0.1640888452529907,walking
1761303750470320000,0.3506134748458862,-0.3991975784301758,0.9247686862945556,0.0242811776697635,-0.0949867516756057,0.1738623976707458,walking
1761303750480457000,0.4047086238861084,-0.4747276306152344,0.7952243089675903,0.0047340663149952,-0.0955975949764251,0.1720298528671264,walking
1761303750490593500,0.6518956422805786,-0.4573030471801758,0.7157091498374939,-0.0239757541567087,-0.0949867516756057,0.1500393599271774,walking
1761303750500730400,0.8075577020645142,-0.4570140838623047,0.7007122039794922,-0.0496313385665416,-0.0931542068719863,0.1274380087852478,walking
1761303750510867200,0.9375827312469482,-0.4524669647216797,0.6839406490325928,-0.0691784545779228,-0.1010952219367027,0.0932305604219436,walking
1761303750521004000,1.0320701599121094,-0.348052978515625,0.7000378966331482,-0.0771194696426391,-0.1133121699094772,0.0632990449666976,walking
1761303750531140600,0.9725476503372192,-0.2751493453979492,0.7014639377593994,-0.0807845517992973,-0.1169772520661354,0.0486387126147747,walking
1761303750541277400,0.8182790279388428,-0.1284751892089843,0.6503794193267822,-0.0820062458515167,-0.1273616552352905,0.0425302386283874,walking
1761303750551414300,0.6593188047409058,0.1014842987060546,0.6143453121185303,-0.0765086188912391,-0.1304158866405487,0.0455844774842262,walking
1761303750561550800,0.5698533058166504,0.2759666442871094,0.5399591326713562,-0.0777303129434585,-0.1218640282750129,0.0468061715364456,walking
1761303750571687700,0.5829935073852539,0.4285612106323242,0.4296958148479461,-0.0777303129434585,-0.1041494607925415,0.0492495596408844,walking
1761303750581824500,0.5265637636184692,0.4828958511352539,0.3359828591346741,-0.0807845517992973,-0.0937650576233863,0.0516929477453231,walking
1761303750591961300,0.4315965175628662,0.436868667602539,0.3475864231586456,-0.0789520069956779,-0.0809372588992118,0.0559688806533813,walking
1761303750602098000,0.2674951553344726,0.3217449188232422,0.3239399492740631,-0.0734543800354003,-0.0846023485064506,0.0571905747056007,walking
1761303750612234800,0.036985158920288,0.1495571136474609,0.2871192693710327,-0.0832279399037361,-0.0613901503384113,0.0559688806533813,walking
1761303750622371600,-0.157079815864563,-0.1105117797851562,0.3571187257766723,-0.066124215722084,-0.0583359114825725,0.0553580336272716,walking
1761303750632508200,-0.3488880395889282,-0.4008264541625976,0.6127718687057495,-0.0459662564098835,-0.0546708293259143,0.0614665038883686,walking
1761303750642645000,-0.5590752363204956,-0.6044721603393555,0.5860635042190552,-0.0423011742532253,-0.0345128700137138,0.0584122687578201,walking
1761303750652781800,-0.53622967004776,-0.6739978790283203,0.5211480855941772,-0.0404686294496059,-0.0174091476947069,0.0492495596408844,walking
1761303750662918700,-0.3485442399978637,-0.6430768966674805,0.4654046595096588,-0.0423011742532253,0.0076355906203389,0.0474170185625553,walking
1761303750673055200,-0.115310788154602,-0.5908517837524414,0.4542735815048218,-0.0465771034359931,0.040621344000101,0.0400868505239486,walking
1761303750683192000,0.0652723312377929,-0.4911098480224609,0.481745183467865,-0.0624591335654258,0.071850910782814,0.0345892272889614,walking
1761303750693329000,0.1280429363250732,-0.4035863876342773,0.438588798046112,-0.09666658192873,0.0932305604219436,0.0376434624195098,walking
1761303750703465500,0.1739211082458496,-0.3139524459838867,0.379944384098053,-0.1314848661422729,0.1078908964991569,0.0376434624195098,walking
1761303750713602300,0.3300670385360718,-0.2294368743896484,0.3420066237449646,-0.1626380831003189,0.124383769929409,0.0321458354592323,walking
1761303750723739100,0.4627413749694824,-0.2765970230102539,0.3069947361946106,-0.1815743446350097,0.1292705535888672,0.0242048222571611,walking
1761303750733875700,0.5075216293334961,-0.3619527816772461,0.2798562049865722,-0.1980672180652618,0.1384332627058029,0.0162638090550899,walking
1761303750744012500,0.5572953224182129,-0.4447135925292969,0.2712399661540985,-0.2041756957769394,0.1414874941110611,0.0132095720618963,walking
1761303750754149400,0.5397371053695679,-0.4579105377197265,0.2840425372123718,-0.20356485247612,0.1518719047307968,0.0168746560811996,walking
1761303750764286200,0.4789686203002929,-0.4088869094848633,0.2779103219509125,-0.2011214643716812,0.1543152928352356,0.0199288912117481,walking
1761303750774422800,0.4610745906829834,-0.2882528305053711,0.2401786744594574,-0.2072299271821975,0.1518719047307968,0.0229831282049417,walking
1761303750794696400,0.3440134525299072,-0.0811576843261718,0.0938403159379959,-0.2017323076725006,0.1506502032279968,0.0235939752310514,walking
1761303750804833000,0.2826756238937378,-0.0018882751464843,0.104080781340599,-0.1950129866600036,0.148206815123558,0.0150421140715479,walking
1761303750814969900,0.2986811399459839,0.0194587707519531,0.1216720789670944,-0.1889045089483261,0.1567586809396743,0.0052685574628412,walking
1761303750825106700,0.1997002363204956,0.0121440887451171,0.1753219664096832,-0.1760767251253128,0.1701973229646682,-0.0008399150101467,walking
1761303750835243300,0.1387324333190918,0.0024681091308593,0.1636951863765716,-0.1595838516950607,0.1744732409715652,-0.0112243182957172,walking
1761303750845380000,0.2079209089279174,0.032698631286621,0.1649471223354339,-0.1473668962717056,0.1927986592054367,-0.0313822776079177,walking
1761303750855517000,0.185270071029663,0.0669879913330078,0.0938242524862289,-0.1382041871547699,0.2105132341384887,-0.0423775278031826,walking
1761303750865653800,0.1002628803253173,-0.0218267440795898,0.0605869889259338,-0.1217113137245178,0.2251735776662826,-0.0503185428678989,walking
1761303750875790300,0.0214309692382812,-0.0856256484985351,0.0743289291858673,-0.1027750521898269,0.2355579733848571,-0.0503185428678989,walking
1761303750885927200,-0.0110725164413452,-0.1436910629272461,0.0935058295726776,-0.0917797982692718,0.2441098392009735,-0.0527619309723377,walking
1761303750896064000,0.0025099515914916,-0.1891355514526367,0.0332063734531402,-0.0820062458515167,0.2496074587106704,-0.060702946037054,walking
1761303750906200600,0.0851763486862182,-0.212799072265625,0.0648069977760315,-0.0673459097743034,0.2502183020114898,-0.0710873529314994,walking
1761303750916337400,0.0851830244064331,-0.3021526336669922,0.1131767332553863,-0.057572353631258,0.2606027126312256,-0.082082599401474,walking
1761303750926474200,0.1048905849456787,-0.3666133880615234,0.1242023706436157,-0.0453554093837738,0.2661003470420837,-0.0906344652175903,walking
1761303750936611000,0.1455448865890503,-0.4465055465698242,0.1080778092145919,-0.0319167710840702,0.2691545784473419,-0.0912453085184097,walking
1761303750946747600,0.1815910339355468,-0.452214241027832,0.0251009315252304,-0.0209215190261602,0.2648786306381225,-0.099186323583126,walking
1761303750956884500,0.2314389944076538,-0.3990278244018554,-0.0202139317989349,-0.0129805039614439,0.2526617050170898,-0.1022405624389648,walking
1761303750967021300,0.284049391746521,-0.3304691314697265,-0.0628073215484619,0.0065666078589856,0.248996615409851,-0.1150683537125587,walking
1761303750977158100,0.319719910621643,-0.3408060073852539,-0.0311771482229232,0.0120642334222793,0.2502183020114898,-0.1193442866206169,walking
1761303750987294700,0.3596229553222656,-0.3816080093383789,-0.0437896251678466,0.0224486365914344,0.2508291602134704,-0.1205659806728363,walking
1761303750997431600,0.3420834541320801,-0.3746347427368164,-0.0995150804519653,0.0383306667208671,0.2612135708332062,-0.1175117418169975,walking
1761303751007568400,0.3700731992721557,-0.3396997451782226,0.2221006751060485,0.0835333615541458,0.2569376230239868,-0.123009368777275,walking
1761303751017705000,0.3437135219573974,-0.3736391067504883,0.2178135067224502,0.07437065243721,0.2208976447582245,-0.1266744434833526,walking
1761303751027841800,0.1823153495788574,-0.1788063049316406,-0.4287886023521423,0.07437065243721,0.1995179802179336,-0.1382805556058883,walking
1761303751037978600,0.356065034866333,-0.0321359634399414,-0.1569801867008209,0.1330119967460632,0.1787491738796234,-0.1443890184164047,walking
1761303751048115200,0.3959414958953857,-0.1725587844848632,-0.0460378229618072,0.1433963924646377,0.1512610465288162,-0.129728689789772,walking
1761303751058252000,0.2225855588912964,-0.1716556549072265,-0.3589646816253662,0.1598892658948898,0.1414874941110611,-0.123009368777275,walking
1761303751068388900,0.381838321685791,-0.0954561233520507,-0.0545098781585693,0.1837123185396194,0.1329356282949447,-0.1248419061303138,walking
1761303751078525700,0.3208149671554565,-0.0277423858642578,-0.0346998870372772,0.1879882365465164,0.1213295385241508,-0.1388913989067077,walking
1761303751088662300,0.3049397468566894,0.0174579620361328,-0.0246465280652046,0.1879882365465164,0.1231620758771896,-0.1572168171405792,walking
1761303751098799000,0.2722024917602539,-0.0112676620483398,-0.0495847389101982,0.1940967142581939,0.1323247849941253,-0.1749313771724701,walking
1761303751108936000,0.2936106920242309,-0.0185422897338867,-0.0097543224692344,0.2258607745170593,0.1286597102880478,-0.1938676536083221,walking
1761303751119072500,0.2493002414703369,-0.0021781921386718,-0.0005302689969539,0.2545706033706665,0.1121668294072151,-0.1999761164188385,walking
1761303751129209300,0.1531996726989746,-0.0894908905029296,-0.150051862001419,0.2686200737953186,0.1036149635910987,-0.1926459521055221,walking
1761303751139346200,0.0106995105743408,-0.0950870513916015,-0.3075836300849914,0.2796153426170349,0.0889546349644661,-0.1834832429885864,walking
1761303751149482800,0.0138001441955566,-0.0957088470458984,-0.3566257953643799,0.3003841340541839,0.0687966719269752,-0.1798181682825088,walking
1761303751159619600,0.0560334920883178,-0.1219520568847656,-0.3392160832881927,0.3419217467308044,0.0369562581181526,-0.1712663024663925,walking
1761303751169756400,0.0970336198806762,-0.1710195541381836,-0.2487104833126068,0.3920112252235412,0.0155766047537326,-0.1657686680555343,walking
1761303751179893200,0.0657202005386352,-0.263641357421875,-0.2558362483978271,0.4194993674755096,0.0076355906203389,-0.1553842723369598,walking
1761303751190029800,0.0218547582626342,-0.3472452163696289,-0.3313697576522827,0.4408790171146393,0.0039705070666968,-0.1419456303119659,walking
1761303751200166700,-0.0108376741409301,-0.3607931137084961,-0.4457879364490509,0.4408790171146393,0.0125223686918616,-0.128506988286972,walking
1761303751210303500,-0.0421968698501586,-0.3972644805908203,-0.4722926020622253,0.4304946064949035,0.0186308417469263,-0.1126249656081199,walking
1761303751220440300,-0.0817549228668212,-0.3950366973876953,-0.4489096105098724,0.4304946064949035,0.0155766047537326,-0.0955212414264679,walking
1761303751230577000,-0.1695035696029663,-0.3405590057373047,-0.2878170013427734,0.444544106721878,-0.0045813545584678,-0.0765849724411964,walking
1761303751240713700,-0.3238530158996582,-0.2251396179199218,-0.137622058391571,0.4775298535823822,-0.040621344000101,-0.0527619309723377,walking
1761303751250850600,-0.3365253210067749,0.1173458099365234,0.0221385955810546,0.5007420182228088,-0.0803264155983924,-0.0283280424773693,walking
1761303751260987100,-0.2172974348068237,0.5744705200195312,0.0240321159362792,0.497687816619873,-0.1230857223272323,-0.0240521114319562,walking
1761303751271124000,-0.0535316467285156,1.1249713897705078,-0.079864501953125,0.4475983381271362,-0.1481304615736007,-0.0405449867248535,walking
1761303751281260800,0.1236120462417602,1.5693016052246094,-0.4197774529457092,0.3736858069896698,-0.1517955511808395,-0.0600920990109443,walking
1761303751291397400,0.2980233430862427,1.866891860961914,-0.2759928107261657,0.3254288733005523,-0.1530172377824783,-0.0857476815581321,walking
1761303751301534200,0.5467977523803711,1.9895906448364256,0.1464865207672119,0.2667875289916992,-0.1310267299413681,-0.099186323583126,walking
1761303751311671000,0.657275915145874,1.9561281204223635,0.4832616448402405,0.1867665499448776,-0.1004843711853027,-0.1095707267522811,walking
1761303751321808000,0.6005421876907349,1.7742347717285156,0.5909124612808228,0.1262926757335662,-0.0803264155983924,-0.1132358089089393,walking
1761303751331944400,0.6058920621871948,1.4993257522583008,0.7315818071365356,0.0762031972408294,-0.0827698037028312,-0.1114032715559005,walking
1761303751342081300,0.5322026014328003,1.0528593063354492,0.7743596434593201,0.0297788046300411,-0.1004843711853027,-0.1077381819486618,walking
1761303751352218000,0.4031428098678589,0.5475091934204102,0.7787289619445801,-0.0215323660522699,-0.1206423342227935,-0.099797174334526,walking
1761303751362354700,0.166698932647705,0.0884923934936523,0.671154260635376,-0.0691784545779228,-0.1450762301683426,-0.0955212414264679,walking
1761303751372491500,0.0116890668869018,-0.2311105728149414,0.5885781049728394,-0.1107160672545433,-0.1640124917030334,-0.0906344652175903,walking
1761303751382628400,-0.1702413558959961,-0.4854660034179687,0.573305070400238,-0.1333174109458923,-0.1731752008199691,-0.0796392112970352,walking
1761303751392765200,-0.300399899482727,-0.6268939971923828,0.5328216552734375,-0.1479777544736862,-0.1829487532377243,-0.0668114200234413,walking
1761303751402901800,-0.3134323954582214,-0.6175603866577148,0.5580448508262634,-0.1595838516950607,-0.1731752008199691,-0.0655897259712219,walking
1761303751413038600,-0.2166500687599182,-0.5413875579833984,0.6375168561935425,-0.1632489264011383,-0.1493521481752395,-0.0668114200234413,walking
1761303751423175400,-0.2269392609596252,-0.4986152648925781,0.7504960894584656,-0.1571404635906219,-0.1169772520661354,-0.0515402369201183,walking
1761303751433312300,-0.2960783839225769,-0.4676990509033203,0.8490223288536072,-0.1522536724805832,-0.0846023485064506,-0.0381015986204147,walking
1761303751443448800,-0.3830271959304809,-0.4820356369018554,0.945625901222229,-0.142480120062828,-0.0589467622339725,-0.0271063465625047,walking
1761303751453585700,-0.4986495077610016,-0.486724853515625,0.9920976758003236,-0.1382041871547699,-0.0424538850784301,-0.0258846525102853,walking
1761303751463722500,-0.5464337468147278,-0.5464277267456055,0.965868592262268,-0.1461452096700668,-0.0265718549489974,-0.0338256657123565,walking
1761303751473859000,-0.5656951069831848,-0.5942583084106445,0.8674576282501221,-0.1516428291797638,-0.0204633828252553,-0.0558161698281765,walking
1761303751483996000,-0.5651164054870605,-0.6470012664794922,0.8912816643714905,-0.1485885977745056,-0.0094681326299905,-0.0875802263617515,walking
1761303751494132700,-0.5907279253005981,-0.6997585296630859,0.9565979242324828,-0.1388150453567505,-0.0082464376464486,-0.1126249656081199,walking
1761303751504269300,-0.7010369300842285,-0.7022237777709961,1.0974180698394775,-0.1223221644759178,-0.0088572856038808,-0.1248419061303138,walking
1761303751514406100,-0.8704174160957336,-0.7141218185424805,1.1778221130371094,-0.1027750521898269,-0.019241688773036,-0.1278961449861526,walking
1761303751524543000,-0.9420080780982972,-0.6852922439575195,1.2488325834274292,-0.0991099700331687,-0.019241688773036,-0.122398518025875,walking
1761303751534679800,-0.9181845188140868,-0.6015100479125977,1.1867409944534302,-0.0911689549684524,-0.0222959257662296,-0.1193442866206169,walking
1761303751544816400,-0.8107369542121887,-0.4415349960327148,1.1455835103988647,-0.0991099700331687,-0.0308477859944105,-0.1199551299214363,walking
1761303751554953200,-0.7355502247810364,-0.2914199829101562,1.0110068321228027,-0.1033858954906463,-0.0357345640659332,-0.1101815775036811,walking
1761303751565090000,-0.7149490118026733,-0.1630020141601562,0.9480859041213988,-0.1058292910456657,-0.0265718549489974,-0.0918561592698097,walking
1761303751575227000,-0.6870632171630859,0.0226402282714843,0.8499608039855957,-0.1015533581376075,-0.0314586348831653,-0.0692548081278801,walking
1761303751585363500,-0.5683389902114868,0.3322486877441406,0.8629181385040283,-0.0917797982692718,-0.0339020229876041,-0.0466534607112407,walking
1761303751595500300,-0.4713213741779327,0.5888080596923828,0.817511796951294,-0.0789520069956779,-0.046729814261198,-0.0228304155170917,walking
1761303751605637000,-0.3083611726760864,0.8330774307250977,0.8016350269317627,-0.0704001486301422,-0.0363454110920429,0.0077119464986026,walking
1761303751615773700,-0.1312592029571533,1.007648468017578,0.730411946773529,-0.0740652307868003,-0.0247393138706684,0.0290916003286838,walking
1761303751625910500,0.1098339557647705,1.2034063339233398,0.678837776184082,-0.0930014923214912,-0.0070247435942292,0.0529146455228328,walking
1761303751636047400,0.305998682975769,1.281682014465332,0.6654258966445923,-0.1174353882670402,0.0100789796561002,0.0657424330711364,walking
1761303751646184200,0.3621281385421753,1.1854524612426758,0.5995827317237854,-0.1406475752592086,0.0113006746396422,0.0761268362402916,walking
1761303751656320800,0.3611632585525512,0.9318180084228516,0.5617642998695374,-0.1485885977745056,0.0119115216657519,0.0724617540836334,walking
1761303751666457600,0.2949334979057312,0.566462516784668,0.5382459163665771,-0.150421142578125,0.0045813545584678,0.056579727679491,walking
1761303751676594400,0.1017882823944091,0.1326198577880859,0.5621824860572815,-0.1540862172842025,0.0045813545584678,0.0376434624195098,walking
1761303751686731000,-0.1194865107536315,-0.2238607406616211,0.5062946081161499,-0.1382041871547699,0.021074229851365,0.0125987250357866,walking
1761303751696867800,-0.2828377485275268,-0.5485944747924805,0.792097270488739,-0.1400367319583892,-0.0058030490763485,-0.0112243182957172,walking
1761303751707004700,-0.5302829742431641,-0.7556552886962891,0.2609014511108398,-0.1620272397994995,-0.0339020229876041,-0.0252738054841756,walking
1761303751717141200,-0.5982097387313843,-0.7807989120483398,0.0296753048896789,-0.1388150453567505,-0.0589467622339725,-0.0466534607112407,walking
1761303751727278000,-0.5294671058654785,-0.8750810623168945,0.3556480407714844,-0.1156028434634208,-0.091932512819767,-0.0497076958417892,walking
1761303751737415000,-0.6933307647705078,-0.9905195236206056,0.2637656629085541,-0.1070509850978851,-0.0962084457278251,-0.0417666807770729,walking
1761303751747551700,-0.7302489876747131,-0.9647397994995116,0.2515563666820526,-0.0997208133339881,-0.08582404255867,-0.0417666807770729,walking
1761303751757688300,-0.6679972410202026,-0.8364248275756836,0.3370283842086792,-0.1009425073862075,-0.0693311616778373,-0.0539836250245571,walking
1761303751767825200,-0.7217410206794739,-0.6559972763061523,0.2876058220863342,-0.1094943732023239,-0.0577250644564628,-0.0662005692720413,walking
1761303751777962000,-0.8102543950080872,-0.4952106475830078,0.3037204146385193,-0.1223221644759178,-0.0357345640659332,-0.075974129140377,walking
1761303751798235400,-0.8697226643562317,-0.1773462295532226,0.3027042150497436,-0.09605573117733,-0.0174091476947069,-0.0888019204139709,walking
1761303751818509000,-1.0020904541015625,0.0727977752685546,0.3233019709587097,-0.0679567605257034,-0.0204633828252553,-0.0613137930631637,walking
1761303751828645600,-0.9252007007598876,0.2321138381958007,0.2099623680114746,-0.0765086188912391,-0.0161874517798423,-0.0515402369201183,walking
1761303751838782500,-0.8150047659873962,0.4125223159790039,0.1465375125408172,-0.0820062458515167,-0.0198525357991457,-0.052151083946228,walking
1761303751848919300,-0.7145716547966003,0.4945735931396484,0.1214498355984687,-0.0826170891523361,-0.0241284668445587,-0.0527619309723377,walking
1761303751859055900,-0.7088559865951538,0.4666652679443359,0.1075330674648284,-0.0911689549684524,-0.0265718549489974,-0.0393232926726341,walking
1761303751869192700,-0.7427533268928528,0.3744640350341797,0.1368520408868789,-0.089336410164833,-0.0314586348831653,-0.0252738054841756,walking
1761303751879329500,-0.6205353736877441,0.2515754699707031,0.0945755392313003,-0.0875038728117942,-0.023517619818449,-0.0093917762860655,walking
1761303751889466400,-0.44545379281044,0.0479326248168945,0.0521054305136203,-0.0905581042170524,-0.0241284668445587,0.0083227939903736,walking
1761303751899603000,-0.3276165723800659,-0.1741619110107422,-0.0741496682167053,-0.0936123430728912,-0.023517619818449,0.0272590592503547,walking
1761303751909739800,-0.278820127248764,-0.4098768234252929,-0.1040789410471916,-0.0887255668640136,-0.023517619818449,0.0461953245103359,walking
1761303751919876600,-0.2479519844055175,-0.6210317611694336,-0.0816772356629371,-0.0917797982692718,-0.0259610079228878,0.0571905747056007,walking
1761303751930013400,-0.2202758193016052,-0.731292724609375,-0.0041504614055156,-0.089336410164833,-0.0271827038377523,0.064520739018917,walking
1761303751940150000,-0.1836007237434387,-0.7146625518798828,-0.0210256576538085,-0.1003316640853881,-0.0290152449160814,0.0694075226783752,walking
1761303751950286800,-0.2190171480178833,-0.6454982757568359,-0.0528120882809162,-0.1082726791501045,-0.0497840531170368,0.0730726048350334,walking
1761303751960423700,-0.2021045088768005,-0.5358695983886719,-0.0634054169058799,-0.1143811494112014,-0.0784938707947731,0.0761268362402916,walking
1761303751970560300,-0.1732369661331176,-0.4097843170166015,-0.2525270879268646,-0.1101052165031433,-0.0943759009242057,0.0755159929394722,walking
1761303751980697000,-0.0178766250610351,-0.3269853591918945,-0.0981369242072105,-0.09666658192873,-0.1200314834713935,0.0755159929394722,walking
1761303751990834000,-0.0439866781234741,-0.237248420715332,-0.0321889035403728,-0.0954448878765106,-0.1420219838619232,0.071240060031414,walking
1761303752000970800,-0.0938636064529419,-0.1811599731445312,-0.0455362014472484,-0.0991099700331687,-0.145687073469162,0.0706292167305946,walking
1761303752011107300,-0.1316257715225219,-0.113260269165039,-0.0384422205388546,-0.1094943732023239,-0.1371352076530456,0.0700183659791946,walking
1761303752021244200,-0.2131363749504089,-0.1457452774047851,0.0304199494421482,-0.1119377613067627,-0.1279724985361099,0.0785702317953109,walking
1761303752031381000,-0.3221119046211242,-0.2401094436645507,0.0562569089233875,-0.1101052165031433,-0.1206423342227935,0.0926197171211242,walking
1761303752041517600,-0.4719652533531189,-0.2267036437988281,0.0310553312301635,-0.1180462315678596,-0.1145338639616966,0.0981173440814018,walking
1761303752051654400,-0.5645593404769897,-0.1870031356811523,0.0152439251542091,-0.119878776371479,-0.1078145429491996,0.1023932695388794,walking
1761303752061791200,-0.5849871039390564,-0.1235227584838867,-0.0078017935156822,-0.1211004704236984,-0.1078145429491996,0.0993390381336212,walking
1761303752071927800,-0.5780149698257446,-0.0363922119140625,-0.0474725775420665,-0.1204896196722984,-0.1035386100411415,0.0883437842130661,walking
1761303752082064600,-0.5659271478652954,0.0194644927978515,-0.0346649922430515,-0.1217113137245178,-0.0980409830808639,0.0846787020564079,walking
1761303752092201500,-0.6328628659248352,0.056105613708496,-0.0259805023670196,-0.1143811494112014,-0.0925433561205864,0.0865112394094467,walking
1761303752102338300,-0.5988513231277466,0.0926151275634765,-0.0043202340602874,-0.1033858954906463,-0.0882674306631088,0.0816244632005691,walking
1761303752112475000,-0.5815736055374146,0.0979871749877929,-0.0249556228518486,-0.0948340371251106,-0.0760504826903343,0.0810136198997497,walking
1761303752122611700,-0.6085349917411804,0.054823875427246,0.0014231950044631,-0.0783411636948585,-0.0729962438344955,0.0852895453572273,walking
1761303752132748500,-0.6735421419143677,0.0030155181884765,-0.0108193308115005,-0.0587940476834774,-0.0656660795211792,0.0938414111733436,walking
1761303752142885400,-0.7005146741867065,-0.0196447372436523,-0.0560882911086082,-0.0374143943190574,-0.0656660795211792,0.10117157548666,walking
1761303752153022000,-0.6670695543289185,-0.0983552932739257,-0.1756615787744522,-0.0099262678995728,-0.0601684562861919,0.1139993667602539,walking
1761303752163158800,-0.6304978132247925,-0.1286115646362304,-0.2648486196994781,0.0145076224580407,-0.0736070945858955,0.124383769929409,walking
1761303752173295600,-0.5079602003097534,-0.1277523040771484,-0.3799690306186676,0.0468825288116931,-0.0772721767425537,0.1298813968896865,walking
1761303752183432200,-0.3995967209339142,-0.0821685791015625,-0.4568552374839782,0.0798682793974876,-0.0937650576233863,0.1335464864969253,walking
1761303752193569000,-0.3521846532821655,-0.0961837768554687,-0.5171135067939758,0.1152974218130111,-0.1078145429491996,0.1366007179021835,walking
1761303752203705900,-0.3651124835014343,-0.07928466796875,-0.5494272708892822,0.1488940119743347,-0.1218640282750129,0.1439308822154998,walking
1761303752213842400,-0.366978645324707,-0.0978536605834961,-0.5918450355529785,0.1824906170368194,-0.1450762301683426,0.153704434633255,walking
1761303752223979300,-0.3751382827758789,-0.0052442550659179,-0.6183214783668518,0.2160872220993042,-0.1658450365066528,0.1708081662654876,walking
1761303752234116000,-0.3341341018676758,0.0859632492065429,-0.6585302948951721,0.2374668717384338,-0.1890572309494018,0.1756949424743652,walking
1761303752244253000,-0.2059139013290405,0.1615829467773437,-0.6857949495315552,0.2649549841880798,-0.2067717909812927,0.1683647781610489,walking
1761303752254389500,-0.1665374636650085,0.1748628616333007,-0.6436359882354736,0.2942756712436676,-0.2250972092151641,0.1653105467557907,walking
1761303752264526300,-0.1500734090805053,0.1573753356933593,-0.6214122176170349,0.3138227760791778,-0.2275405973196029,0.1530935913324356,walking
1761303752274663200,-0.2005078792572021,0.09783935546875,-0.5790165662765503,0.3309265077114105,-0.2293731421232223,0.1372115612030029,walking
1761303752284800000,-0.2532734274864197,0.1170301437377929,-0.4254434108734131,0.3431434333324432,-0.2324273884296417,0.1225512325763702,walking
1761303752294936600,-0.4467660784721374,0.3550281524658203,0.0365486443042755,0.4140017330646515,-0.2715215981006622,0.1042258143424987,walking
1761303752305073400,-0.6860193014144897,0.8197116851806641,0.5083461999893188,0.425607830286026,-0.2593046724796295,0.0761268362402916,walking
1761303752315210200,-0.6113967299461365,1.1233091354370115,0.0810071527957916,0.3455868363380432,-0.1884463727474212,0.0590231157839298,walking
1761303752325346800,-0.2177443504333496,1.3487186431884766,-0.244207888841629,0.2875563502311706,-0.1249182671308517,0.0559688806533813,walking
1761303752335483600,0.1969998478889465,1.593889236450195,0.0627773106098175,0.2509055137634277,-0.0607793033123016,0.0596339628100395,walking
1761303752345620500,0.3230862617492676,1.6489343643188477,0.3820520341396332,0.1953184157609939,0.0161874517798423,0.0724617540836334,walking
1761303752355757300,0.3062694072723388,1.5244512557983398,0.550478458404541,0.1256818175315857,0.0755159929394722,0.0852895453572273,walking
1761303752365894000,0.308334469795227,1.273432731628418,0.6303903460502625,0.0609320141375064,0.118275299668312,0.0859003961086273,walking
1761303752376030700,0.3620394468307495,0.912714958190918,0.638517439365387,-0.0068720318377017,0.1506502032279968,0.0694075226783752,walking
1761303752386167600,0.3956109285354614,0.3590612411499023,0.7079066038131714,-0.0618482865393161,0.1592020690441131,0.0541363395750522,walking
1761303752396304100,0.1738327741622924,-0.2960042953491211,0.7797962427139282,-0.0813953951001167,0.172640711069107,0.0510821007192134,walking
1761303752406441000,-0.1672481298446655,-0.9421682357788086,1.1986290216445925,-0.0746760740876197,0.154926136136055,0.056579727679491,walking
1761303752416577800,-0.3626441359519958,-1.3718318939208984,1.1757948398590088,-0.1149920001626014,0.1139993667602539,0.0669641271233558,walking
1761303752426714600,-0.463932454586029,-1.4303827285766602,0.4963068962097168,-0.1412584334611892,0.0901763290166854,0.0632990449666976,walking
1761303752436851200,-0.0869864821434021,-1.3143396377563477,0.6051250696182251,-0.112548604607582,0.0485623553395271,0.0614665038883686,walking
1761303752446988000,0.0342998504638671,-1.2962417602539062,0.717862606048584,-0.0978882759809494,0.016798298805952,0.0785702317953109,walking
1761303752457124900,-0.0536311864852905,-1.1801166534423828,0.752005934715271,-0.0930014923214912,0.0161874517798423,0.0901763290166854,walking
1761303752467261400,0.0053102970123291,-0.9853248596191406,0.8163280487060547,-0.1003316640853881,0.021074229851365,0.1042258143424987,walking
1761303752477398300,-0.018059492111206,-0.747960090637207,0.79752516746521,-0.1180462315678596,0.0216850768774747,0.1139993667602539,walking
1761303752487535000,-0.0722768306732177,-0.518366813659668,0.7970043420791626,-0.1272089481353759,0.0180199947208166,0.1127776727080345,walking
1761303752497672000,0.0589655637741088,-0.2942590713500976,0.6554211378097534,-0.1302631795406341,0.0058030490763485,0.0987281873822212,walking
1761303752507808500,0.196695327758789,-0.1520195007324218,0.6488232612609863,-0.0984991192817688,-0.0051922015845775,0.0785702317953109,walking
1761303752517945300,0.2250951528549194,-0.1080360412597656,0.7578344345092773,-0.065513364970684,-0.0113006746396422,0.0700183659791946,walking
1761303752528082200,0.1961481571197509,-0.1596555709838867,0.8459615707397461,-0.0557398125529289,-0.0033596600405871,0.0694075226783752,walking
1761303752538218800,0.1379193067550659,-0.1704978942871093,0.8321048021316528,-0.0691784545779228,0.0076355906203389,0.0761268362402916,walking
1761303752548355600,0.203814148902893,-0.1240091323852539,0.849787712097168,-0.0875038728117942,0.016798298805952,0.0779593810439109,walking
1761303752558492400,0.3951799869537353,-0.042032241821289,0.8840129375457764,-0.112548604607582,0.019241688773036,0.0632990449666976,walking
1761303752568629000,0.5418527126312256,-0.0058145523071289,0.9536441564559937,-0.1400367319583892,0.0180199947208166,0.0516929477453231,walking
1761303752578765800,0.5987612009048462,-0.0940465927124023,1.023247003555298,-0.1632489264011383,0.0125223686918616,0.0382543094456195,walking
1761303752588902700,0.6652659177780151,-0.0940084457397461,1.04310941696167,-0.1827960461378097,0.0009162708884105,0.0125987250357866,walking
1761303752599039500,0.7845597267150879,-0.0656394958496093,0.9848291873931884,-0.2005106061697006,-0.0064138961024582,-0.0155002493411302,walking
1761303752609176000,0.8245604038238525,-0.0304222106933593,0.8412450551986694,-0.2206685692071914,-0.0180199947208166,-0.037490751594305,walking
1761303752619313000,0.7899386882781982,-0.0193605422973632,0.7396142482757568,-0.2365505993366241,-0.0339020229876041,-0.0564270168542861,walking
1761303752629449700,0.6835206747055054,0.0156354904174804,0.6494696736335754,-0.2451024651527404,-0.0461189672350883,-0.0539836250245571,walking
1761303752639586600,0.5493302345275879,0.0221595764160156,0.6092697381973267,-0.249989241361618,-0.0510057471692562,-0.0362690575420856,walking
1761303752649723100,0.4321383237838745,0.0767822265625,0.6202711462974548,-0.2646495699882507,-0.0528382882475853,-0.0118351653218269,walking
1761303752659860000,0.4447494745254516,0.1745433807373047,0.5850175619125366,-0.2738122940063476,-0.0577250644564628,0.0064902519807219,walking
1761303752669996800,0.460509181022644,0.1982965469360351,0.5759227275848389,-0.2762556672096252,-0.0613901503384113,0.022372281178832,walking
1761303752680133400,0.3537557125091553,0.059762954711914,0.4846609830856323,-0.2848075330257416,-0.0491732060909271,0.0290916003286838,walking
1761303752690270200,0.2540552616119385,-0.1714496612548828,0.548345148563385,-0.2658712565898895,-0.0485623553395271,0.032756682485342,walking
1761303752700407000,0.0329344272613525,-0.4447317123413086,0.6963004469871521,-0.2579302489757538,-0.0528382882475853,0.0553580336272716,walking
1761303752710544000,-0.3089884519577026,-0.6382350921630859,0.568393349647522,-0.2420482337474823,-0.0479515083134174,0.0749051421880722,walking
1761303752720680400,-0.3682401776313782,-0.7664375305175781,0.5517640709877014,-0.2304421216249466,-0.0430647321045398,0.0987281873822212,walking
1761303752730817300,-0.2910141944885254,-0.8128242492675781,0.4223124384880066,-0.2121167033910751,-0.0375671051442623,0.1207186877727508,walking
1761303752740954000,-0.1253916025161743,-0.751338005065918,0.371626615524292,-0.1901262104511261,-0.023517619818449,0.142709195613861,walking
1761303752751090700,0.0195273160934448,-0.6683483123779297,0.334867000579834,-0.1699682474136352,-0.0113006746396422,0.154926136136055,walking
1761303752761227500,0.1306713819503784,-0.5377941131591797,0.2928289175033569,-0.1510319858789444,-0.0039705070666968,0.154926136136055,walking
1761303752771364400,0.3623656034469604,-0.3074350357055664,0.2904401421546936,-0.1363716572523117,0.0058030490763485,0.1408766508102417,walking
1761303752781501200,0.5619226694107056,-0.1518726348876953,0.2563819587230682,-0.1400367319583892,0.0265718549489974,0.1225512325763702,walking
1761303752791637800,0.6119073629379272,-0.0422258377075195,0.2274851500988006,-0.1351499557495117,0.040621344000101,0.1091125905513763,walking
1761303752801774600,0.6367620229721069,0.0430974960327148,0.3001411259174347,-0.1211004704236984,0.0565033704042434,0.0968956500291824,walking
1761303752811911400,0.5907344818115234,0.0755443572998046,0.3141781687736511,-0.1070509850978851,0.0656660795211792,0.0889546349644661,walking
1761303752822048300,0.4806658029556274,0.1054668426513671,0.329275518655777,-0.0954448878765106,0.0694075226783752,0.0859003961086273,walking
1761303752832184800,0.4984388351440429,0.1638288497924804,0.2782875597476959,-0.0862821787595748,0.0755159929394722,0.0761268362402916,walking
1761303752842321700,0.5749346017837524,0.2314081192016601,0.2539059221744537,-0.0844496339559555,0.0730726048350334,0.0614665038883686,walking
1761303752852458500,0.494326114654541,0.1697444915771484,0.242372065782547,-0.0746760740876197,0.0816244632005691,0.0547471866011619,walking
1761303752862595000,0.4252530336380005,0.1342802047729492,0.2592026591300964,-0.0771194696426391,0.0871220901608467,0.0370326153934001,walking
1761303752872732000,0.4608365297317505,0.1044120788574218,0.2646363377571106,-0.0789520069956779,0.10117157548666,0.0248156692832708,walking
1761303752882868700,0.4164305925369262,0.0066814422607421,0.2326452732086181,-0.0740652307868003,0.1109451353549957,0.0187071971595287,walking
1761303752893005300,0.3615732192993164,-0.1059684753417968,0.217676430940628,-0.072843536734581,0.118275299668312,0.0132095720618963,walking
1761303752903142100,0.3688288927078247,-0.1625633239746093,0.2024747431278228,-0.0765086188912391,0.1268271654844284,0.013820419088006,walking
1761303752913279000,0.2655024528503418,-0.2818107604980469,0.1668180227279663,-0.0697892978787422,0.1390441060066223,0.0125987250357866,walking
1761303752923415600,0.2020434141159057,-0.3731927871704101,0.1473722159862518,-0.0771194696426391,0.149428516626358,0.0083227939903736,walking
1761303752933552400,0.1545052528381347,-0.4372186660766601,0.1346322894096374,-0.0820062458515167,0.1640888452529907,0.0016034740256145,walking
1761303752943689200,0.2029629945755005,-0.4979782104492187,0.1625281870365142,-0.0758977755904197,0.178138330578804,-0.0081700822338461,walking
1761303752953826000,0.1802971363067627,-0.505986213684082,0.1668611764907837,-0.0697892978787422,0.1891335844993591,-0.0106134712696075,walking
1761303752963962600,0.1585495471954345,-0.5233545303344727,0.1760627031326294,-0.066124215722084,0.1982962936162948,-0.0155002493411302,walking
1761303752974099500,0.1229965686798095,-0.5498571395874023,0.1385309994220733,-0.0594048947095871,0.2092915475368499,-0.0142785543575882,walking
1761303752984236300,0.0770565271377563,-0.5666608810424805,0.1474283337593078,-0.0484096445143222,0.2092915475368499,-0.022219568490982,walking
1761303752994373000,0.0912284851074218,-0.5315313339233398,0.1388331651687622,-0.0331384651362896,0.2092915475368499,-0.0271063465625047,walking
1761303753004509700,0.0663533210754394,-0.5348691940307617,0.1406599283218383,-0.0239757541567087,0.2117349356412887,-0.0393232926726341,walking
1761303753014646500,0.2322067022323608,-0.5408515930175781,0.1154758930206298,-0.0105371149256825,0.2147891670465469,-0.0594812519848346,walking
1761303753024783400,0.3046267032623291,-0.5610265731811523,0.0931750535964965,-0.0074828788638114,0.2288386523723602,-0.0704765021800994,walking
1761303753034920000,0.2232717275619506,-0.6374626159667969,0.0600980520248413,-0.000152711814735,0.2355579733848571,-0.0747524350881576,walking
1761303753045056800,0.2286624908447265,-0.6679477691650391,0.0575994849205017,-0.0050394898280501,0.2441098392009735,-0.0808609053492546,walking
1761303753055193600,0.2816036939620971,-0.6744413375854492,0.0478332042694091,-0.0087045738473534,0.2373905181884765,-0.0869693756103515,walking
1761303753065330400,0.3205106258392334,-0.6268110275268555,0.0546804666519165,-0.0099262678995728,0.2318928837776184,-0.0973537787795066,walking
1761303753075467000,0.323853850364685,-0.6248092651367188,0.1000416874885559,-0.0019852535333484,0.2184542566537857,-0.1022405624389648,walking
1761303753085603800,0.2828007936477661,-0.6063556671142578,0.1272406578063964,-0.0123696569353342,0.2141783237457275,-0.1065164878964424,walking
1761303753095740700,0.4096035957336426,-0.5411787033081055,0.1008751392364502,0.0016798300202935,0.2386122047901153,-0.105294793844223,walking
1761303753105877200,0.5769412517547607,-0.4678516387939453,0.5341489911079407,0.0255028735846281,0.224562719464302,-0.1089598834514617,walking
1761303753116014000,0.5991853475570679,-0.3015995025634765,0.0253159999847412,-0.0062611843459308,0.1934095174074173,-0.1242310628294944,walking
1761303753126151000,0.6152759790420532,-0.100717544555664,-0.5747354030609131,0.0065666078589856,0.171419009566307,-0.1388913989067077,walking
1761303753136287700,0.6747575998306274,-0.0587425231933593,-0.1868348717689514,0.0584886260330677,0.1201078444719314,-0.1309503763914108,walking
1761303753146424300,0.530256986618042,-0.0972528457641601,-0.1983629167079925,0.080479122698307,0.0877329409122467,-0.1028514057397842,walking
1761303753156561200,0.4172338247299194,-0.0714445114135742,-0.2619623243808746,0.1000262349843978,0.0871220901608467,-0.0869693756103515,walking
1761303753166698000,0.4556151628494262,0.0199470520019531,-0.2100949585437774,0.111021488904953,0.0607793033123016,-0.0765849724411964,walking
1761303753176834800,0.3707723617553711,0.1593437194824218,-0.2825445532798767,0.1006370857357978,0.0638335421681404,-0.0747524350881576,walking
1761303753186971400,0.3807655572891235,0.2469062805175781,-0.4010531902313232,0.07498150318861,0.0700183659791946,-0.0912453085184097,walking
1761303753197108200,0.3737903833389282,0.2762374877929687,-0.5151407122612,0.0786465853452682,0.0901763290166854,-0.1114032715559005,walking
1761303753207245000,0.2800765037536621,0.2884054183959961,-0.4401161074638366,0.1165191158652305,0.095063105225563,-0.1138466596603393,walking
1761303753217381600,0.0644072294235229,0.2724227905273437,-0.4493519961833954,0.1543916463851928,0.0613901503384113,-0.0796392112970352,walking
1761303753227518500,-0.159600019454956,0.3719978332519531,-0.6039285659790039,0.1788255423307418,0.0265718549489974,-0.0796392112970352,walking
1761303753237655300,0.3211524486541748,0.2025022506713867,-0.7061861753463745,0.2069245129823684,0.032069481909275,-0.3673482835292816,walking
1761303753247791900,0.6658952236175537,-0.1313772201538086,-0.6714571714401245,0.2423536479473114,0.0314586348831653,-0.1871483325958252,walking
1761303753257928700,-0.9040175676345824,0.7914113998413086,-0.681336522102356,0.2252499312162399,0.032069481909275,-0.1175117418169975,walking
1761303753268065500,0.4091606140136719,0.6220159530639648,-1.0304614305496216,0.2215848416090011,0.0400104969739913,-0.2036412060260772,walking
1761303753278202400,0.856712818145752,0.3578643798828125,-0.743090808391571,0.2655658423900604,0.0259610079228878,-0.2916032075881958,walking
1761303753288339000,0.1886141300201416,0.4302301406860351,-0.4355544149875641,0.3449759781360626,-0.0375671051442623,-0.2751103341579437,walking
1761303753298475800,-0.4609666466712951,0.5081901550292969,-0.0767505317926406,0.4341596961021423,-0.091932512819767,-0.3032093048095703,walking
1761303753308612600,-0.2922486662864685,0.8158607482910156,0.129831850528717,0.4518742561340332,-0.1212531775236129,-0.3025984466075897,walking
1761303753318749400,-0.6582601070404053,1.2686023712158203,0.0549651458859443,0.3877353072166443,-0.1664558798074722,-0.3025984466075897,walking
1761303753328886000,-0.4106038808822632,1.985433578491211,0.1228519678115844,0.3058817684650421,-0.186613842844963,-0.3160370886325836,walking
1761303753339022800,-0.528754711151123,1.7974615097045898,0.2997539639472961,0.2515163719654083,-0.1829487532377243,-0.3655157387256622,walking
1761303753349159700,-0.4341470599174499,1.984871864318848,0.698624312877655,0.2081461995840072,-0.1707318127155304,-0.3881170749664306,walking
1761303753359296300,-0.4554930925369262,2.01688003540039,1.118862509727478,0.1476723253726959,-0.1438545286655426,-0.3765109777450561,walking
1761303753369433000,-0.4369939267635345,1.7051382064819336,1.141209840774536,0.0737598091363906,-0.1206423342227935,-0.3679591119289398,walking
1761303753379570000,-0.3360862135887146,1.212904930114746,0.8844073414802551,0.008399149402976,-0.0833806544542312,-0.3563530147075653,walking
1761303753389706500,-0.2520444393157959,0.6959543228149414,0.9483165740966796,-0.0135913519188761,-0.0699420124292373,-0.3331408202648163,walking
1761303753399843300,-0.0666368603706359,0.1209897994995117,1.1243739128112793,-0.0374143943190574,-0.0778830274939537,-0.2977116703987121,walking
1761303753409980200,-0.1194856762886047,-0.4402122497558594,0.9499022364616394,-0.0746760740876197,-0.0662769302725792,-0.2598391473293304,walking
1761303753420117000,-0.1596502661705017,-0.9421176910400392,0.735435962677002,-0.1211004704236984,-0.0681094676256179,-0.1938676536083221,walking
1761303753430253600,-0.4451441168785095,-1.4899682998657229,0.5362513661384583,-0.1644706279039383,-0.062000997364521,-0.1272853016853332,walking
1761303753440390400,-0.24805748462677,-1.6731805801391602,0.5468714833259583,-0.1962346881628036,-0.0510057471692562,-0.0979646295309066,walking
1761303753450527200,0.076581060886383,-1.6886215209960938,0.5534605383872986,-0.2353289127349853,-0.0332911759614944,-0.0888019204139709,walking
1761303753460663800,0.0118427872657775,-1.5987300872802734,0.4853434264659881,-0.2646495699882507,-0.0131332157179713,-0.0716981962323188,walking
1761303753470800600,-0.0351291298866272,-1.3010578155517578,0.4896471202373504,-0.305576354265213,0.0039705070666968,-0.0564270168542861,walking
1761303753480937500,-0.0576781034469604,-0.927546501159668,0.4430011510848999,-0.3617742955684662,0.0051922015845775,-0.060702946037054,walking
1761303753491074000,-0.0802632570266723,-0.7123680114746094,0.4407359361648559,-0.3984251320362091,-0.0119115216657519,-0.0600920990109443,walking
1761303753501211000,-0.173613965511322,-0.6502265930175781,0.7083367109298706,-0.4222481548786163,-0.0070247435942292,-0.0442100688815116,walking
1761303753511347700,-0.4186678528785705,-0.5496835708618164,0.9232982397079468,-0.4399627447128296,0.0039705070666968,-0.028938889503479,walking
1761303753521484500,-0.5957463383674622,-0.7000064849853516,1.1004931926727295,-0.4338542520999908,-0.0485623553395271,-0.0356582105159759,walking
1761303753531621000,-0.5096367001533508,-0.4773263931274414,1.0508720874786377,-0.4045335948467254,-0.0448972731828689,-0.0362690575420856,walking
1761303753541758000,-0.8428186774253845,-0.2791318893432617,1.5395509004592896,-0.3721587061882019,-0.0491732060909271,-0.0490968488156795,walking
1761303753551894800,-0.6561889052391052,-0.1817970275878906,1.2376348972320557,-0.328788548707962,0.0706292167305946,-0.0515402369201183,walking
1761303753562031600,-1.59971022605896,0.0158987045288085,1.9712183475494385,-0.3013004064559936,0.0180199947208166,-0.0045049986802041,walking
1761303753572168200,-0.9749505519866944,-0.2068796157836914,1.1361252069473269,-0.3037438094615936,0.0186308417469263,0.026648212224245,walking
1761303753582305000,-0.9960989952087402,0.0203256607055664,1.149785399436951,-0.3135173618793487,0.0418430380523204,0.071850910782814,walking
1761303753592441900,-1.1252620220184326,0.2069759368896484,1.168476939201355,-0.3336753249168396,0.0583359114825725,0.1274380087852478,walking
1761303753602578400,-1.2440247535705566,0.4605159759521484,1.1529252529144287,-0.3379512429237366,0.1078908964991569,0.1738623976707458,walking
1761303753612715300,-0.8912022709846497,0.5175037384033203,1.12805438041687,-0.3251234591007232,0.2593810260295868,0.1518719047307968,walking
1761303753622852000,-1.3780332803726196,1.123854637145996,2.1724696159362797,-0.2628170251846313,0.2050156146287918,0.2270061075687408,walking
1761303753632989000,-0.8505825400352478,0.1403369903564453,1.4972158670425415,-0.1705790907144546,0.1396549493074417,0.2661003470420837,walking
1761303753643125500,-0.3037929832935333,0.2049989700317382,1.3834900856018066,-0.1168245375156402,0.071240060031414,0.2697654068470001,walking
1761303753653262300,-0.1403203606605529,0.522679328918457,1.1918226480484009,-0.0881147161126136,0.0516165941953659,0.2911450862884521,walking
1761303753663399200,-0.145982563495636,0.5941057205200195,0.7605023980140686,-0.1217113137245178,0.0981173440814018,0.3106921911239624,walking
1761303753673535700,-0.1696376204490661,0.5777053833007812,0.1472872495651245,-0.2072299271821975,0.1194969937205314,0.3015294671058655,walking
1761303753683672600,0.0230510234832763,0.4208793640136719,-0.1973596811294555,-0.2817533016204834,0.1451525837182998,0.2661003470420837,walking
1761303753693809400,0.635187029838562,0.4247922897338867,-0.1061691641807556,-0.352000743150711,0.1317139416933059,0.2208976447582245,walking
1761303753703946000,0.66873699426651,0.505742073059082,-0.2813014984130859,-0.441795289516449,0.0577250644564628,0.1818034201860427,walking
1761303753714082800,0.5083318948745728,0.2290802001953125,-0.5068429708480835,-0.5297572612762451,-0.0265718549489974,0.1543152928352356,walking
1761303753724219600,0.1755598783493042,-0.1341705322265625,-0.4805099368095398,-0.6244385838508606,-0.0565033704042434,0.1353790163993835,walking
1761303753734356500,0.0168104767799377,-0.4598541259765625,-0.2250067591667175,-0.69651859998703,-0.0400104969739913,0.0999498814344406,walking
1761303753744493000,0.1293566823005676,-0.7890729904174805,0.0899947881698608,-0.7386670708656311,-0.0119115216657519,0.0437519364058971,walking
1761303753754630000,0.1478897333145141,-0.9210844039916992,0.1578069925308227,-0.7911999225616455,0.0015271181473508,-0.0216087214648723,walking
1761303753764766700,-0.2484552264213562,-0.8584499359130859,0.214239239692688,-0.834570050239563,-0.0094681326299905,-0.0545944720506668,walking
1761303753774903300,-0.6480796933174133,-0.902629852294922,0.1397085189819336,-0.8724426031112671,0.0583359114825725,-0.099186323583126,walking
1761303753785040100,-0.7202466130256653,-0.9694557189941406,0.0797913074493408,-0.9127585291862488,0.1500393599271774,-0.1266744434833526,walking
1761303753805313500,-0.7405910491943359,-0.8502721786499023,-1.164081335067749,-1.1155598163604736,0.1005607321858406,-0.1877591758966446,walking
1761303753815450400,-0.3706725835800171,-0.7084159851074219,-1.7943084239959717,-1.2804886102676392,0.0045813545584678,-0.2726669311523437,walking
1761303753825587200,0.086166501045227,-0.3327932357788086,-1.967173218727112,-1.4875657558441162,-0.0308477859944105,-0.373456746339798,walking
1761303753835724000,0.3756383061408996,-0.205911636352539,-1.8420326709747317,-1.6727288961410522,-0.0070247435942292,-0.4785224795341491,walking
1761303753845860600,0.4646906852722168,-0.0952711105346679,-1.6500869989395142,-1.822386384010315,0.0241284668445587,-0.5817556381225586,walking
1761303753855997400,0.1669460535049438,-0.0407638549804687,-1.4913580417633057,-1.9433342218399048,0.0797919258475303,-0.6226824522018433,walking
1761303753866134300,-0.563298225402832,-0.2415437698364257,-1.3999663591384888,-2.073444604873657,0.1677539348602295,-0.6147413849830627,walking
1761303753876270800,-0.8796056509017944,-0.2427177429199218,-1.2582440376281738,-2.1986682415008545,0.3284067511558532,-0.6318451166152954,walking
1761303753886407700,-1.3500888347625732,-0.2196254730224609,-1.0842106342315674,-2.3458826541900635,0.4255314767360687,-0.575036346912384,walking
1761303753896544500,-1.726079344749451,-0.6519737243652344,-1.581351637840271,-2.541353702545166,0.468290776014328,-0.4540885686874389,walking
1761303753906681000,-1.706065654754639,-0.8300695419311523,-1.7027099132537842,-2.7539284229278564,0.4701233208179474,-0.3532987833023071,walking
1761303753916818000,-1.6972657442092896,-0.5313749313354492,-1.6498548984527588,-2.957340717315674,0.2447206825017929,-0.2366269528865814,walking
1761303753926954800,-1.8544387817382808,-0.6669998168945312,-2.225370407104492,-3.073401689529419,0.4127036929130554,-0.1963110417127609,walking
1761303753937091600,-0.5520226359367371,0.1287755966186523,0.7513618469238281,-3.090505361557007,0.6753680109977722,-0.2207449227571487,walking
1761303753947228200,-0.3676066994667053,-0.182321548461914,-0.8315253257751465,-3.1735806465148926,0.8060893416404724,-0.1944784969091415,walking
1761303753957365000,-0.7670010328292847,-0.7954998016357422,-1.2737069129943848,-3.287809133529663,1.0931875705718994,-0.1395022422075271,walking
1761303753967501800,-0.750771701335907,-1.095292091369629,-0.8710131645202637,-3.4973297119140625,1.082192301750183,-0.1016297116875648,walking
1761303753977638400,-0.5485535860061646,-1.2359280586242676,-2.376767873764038,-3.6677560806274414,0.9135984182357788,-0.0869693756103515,walking
1761303753987775200,-0.4499552249908447,-1.174591064453125,-1.451527118682861,-3.7025742530822754,1.0351570844650269,-0.0808609053492546,walking
1761303753997912000,-0.2860986590385437,-1.3929929733276367,-0.4582762718200683,-3.7172346115112314,1.215356945991516,-0.0704765021800994,walking
1761303754008048600,-0.2059919238090515,-1.6234140396118164,-0.7651805877685547,-3.7642698287963863,1.1835929155349731,-0.0570378638803958,walking
1761303754018185500,-0.4550923705101013,-1.5671448707580566,-1.6096320152282717,-3.813748598098755,0.969796359539032,-0.052151083946228,walking
1761303754028322300,-0.5717025399208069,-1.3858847618103027,-1.842698097229004,-3.811915874481201,0.6888066530227661,-0.1303395330905914,walking
1761303754038459100,0.08688685297966,-0.8197760581970215,-0.7475686073303223,-3.677529573440552,0.4780643284320831,-0.2787754237651825,walking
1761303754048595700,0.722573459148407,-0.2629218101501465,1.1252431869506836,-3.637213706970215,1.1109020709991455,-0.3624614775180816,walking
1761303754058732500,-0.0268076658248901,-0.5674777030944824,0.805417537689209,-3.800309896469116,1.5464361906051636,-0.3288649022579193,walking
1761303754068869400,-1.0504541397094729,-0.2694821357727051,-0.3817501068115234,-3.984174966812134,1.5971364974975586,-0.3563530147075653,walking
1761303754079006200,-1.601282835006714,0.0988969802856445,-0.2557768821716308,-4.015938758850098,1.3277528285980225,-0.3160370886325836,walking
1761303754089142800,-1.1999224424362185,-0.4030637741088867,0.0017356872558593,-3.899878025054932,0.9722397923469543,-0.1682120710611343,walking
1761303754099279600,-0.8695881366729736,-0.9350383281707764,0.7774333953857422,-3.6390461921691895,0.391934871673584,0.0394760034978389,walking
1761303754109416400,-0.3831439018249511,-1.1377463340759275,1.4780569076538086,-3.203512191772461,-0.1780619770288467,0.142709195613861,walking
1761303754119553000,0.2585245370864868,-0.6447877883911133,2.90932846069336,-2.65130615234375,-0.3820849657058716,0.0358109213411808,walking
1761303754129689900,0.9213048815727234,0.1878008842468261,4.111950874328613,-2.1180365085601807,-0.370478868484497,-0.2659476399421692,walking
1761303754139826700,1.303239345550537,0.7741460800170898,4.159873008728027,-1.680669903755188,-0.3991886973381042,-0.5976377129554749,walking
1761303754149963300,1.1948752403259275,0.7631402015686035,3.4737462997436523,-1.284764528274536,-0.5659499764442444,-0.8401440382003784,walking
1761303754160100000,0.7502495646476746,0.6371800899505615,3.2142457962036133,-0.8718317747116089,-0.8548807501792908,-0.9433772563934326,walking
1761303754170237000,-0.2293519377708435,0.4730699062347412,2.808009147644043,-0.4839437305927276,-1.1523633003234863,-0.9006179571151733,walking
1761303754180373800,-1.4068717956542969,0.3073763847351074,2.5682239532470703,-0.196845531463623,-1.3142378330230713,-0.7424085140228271,walking
1761303754190510300,-2.4516544342041016,-0.143104076385498,2.472414970397949,-0.1052184402942657,-1.272700309753418,-0.5377746820449829,walking
