timestamp,acc_x,acc_y,acc_z,gyr_x,gyr_y,gyr_z,activity
1761225830511123500,-0.6481158254578709,-0.1280067867100238,0.1927297265112399,0.0224686488509178,-0.1971613615751266,-0.1195727288722992,walking
1761225830521136600,-0.4551671954989433,-0.1043506013125181,0.3252554519504309,0.0350808650255203,-0.2428397834300995,-0.1013123244047164,walking
1761225830531150300,-0.2166030617907643,-0.0897936681717634,0.4475859465897083,0.0257912278175354,-0.2927607595920563,-0.0718577653169632,walking
1761225830541163500,-0.2206337786115705,-0.1836369039952755,0.6439648432582616,-0.0138574577867984,-0.3515569567680359,-0.0650678053498268,walking
1761225830551176400,-0.3361243807608261,-0.2564496267497539,0.8157306921958923,-0.0776699930429458,-0.3931305110454559,-0.0658150911331176,walking
1761225830561190400,-0.469889109943062,-0.3018850977569818,0.8033148627370595,-0.1541746258735656,-0.4022776782512665,-0.0702918618917465,walking
1761225830571203600,-0.5078786488585174,-0.3086334029734134,0.5318967994362116,-0.2120424509048462,-0.3758005201816559,-0.0610426999628543,walking
1761225830581216300,-0.5407593203276395,-0.228043616476655,0.1511316417098045,-0.2238796651363372,-0.332938015460968,-0.0674822255969047,walking
1761225830591228200,-0.6054674278859049,-0.0903939721524715,-0.1630582263469696,-0.2097313553094864,-0.2699300050735473,-0.0831557288765907,walking
1761225830601242400,-0.6486094541937112,0.0239063607662916,-0.2670692204415798,-0.1853637099266052,-0.2248115390539169,-0.0887558236718177,walking
1761225830611255300,-0.55201611594446,0.0663391428261995,-0.233504219970107,-0.1540036499500274,-0.2110629677772522,-0.0770293921232223,walking
1761225830621268200,-0.367938190183416,0.0242857154726982,-0.1137058741569519,-0.1273058950901031,-0.2399891763925552,-0.0612744130194187,walking
1761225830631282400,-0.3001161153230816,-0.091398180758953,0.0125496849715709,-0.1089916005730629,-0.2859233915805816,-0.0576959215104579,walking
1761225830641295400,-0.3665829761821776,-0.1174737022578716,0.0739502023518085,-0.0940812230110168,-0.302506685256958,-0.0587652921676635,walking
1761225830651308300,-0.4587297102861106,-0.1449602595984935,0.1419283445566892,-0.1164712235331535,-0.308226615190506,-0.0761235058307647,walking
1761225830661321500,-0.6475915093228221,-0.2490232761412859,0.2627829214245081,-0.1611606329679489,-0.3112572133541107,-0.0901497229933738,walking
1761225830671335400,-0.619454086858034,-0.2571791100680828,0.1940741268575191,-0.1736878752708435,-0.3002354502677917,-0.0997032821178436,walking
1761225830681348400,-0.492024953905493,-0.1562093833655118,-0.1122398932576179,-0.137626364827156,-0.2783093750476837,-0.1110408753156662,walking
1761225830691361500,-0.5161873352594674,0.0023053543329238,-0.2456260349184274,-0.0858507826924324,-0.2730293869972229,-0.1283996105194091,walking
1761225830701374200,-0.5568482853412627,0.0501209984749555,-0.123912795394659,-0.0527555495500564,-0.2732357084751129,-0.1315992027521133,walking
1761225830711388400,-0.4830734395563602,0.0577957708865404,0.0270820681929588,-0.0281295664608478,-0.2650291621685028,-0.1241761744022369,walking
1761225830721401300,-0.3838897925529628,-0.0064624740123748,0.2223258233517408,-0.0260068550705909,-0.2725459635257721,-0.122054249048233,walking
1761225830731414300,-0.3863863220764323,-0.0097293668538331,0.4315408207178116,-0.0434122085571289,-0.2902626395225525,-0.1171103566884994,walking
1761225830741428500,-0.4471836493991315,-0.0044324294894933,0.583090395578742,-0.0748167559504509,-0.2990908622741699,-0.1158287525177002,walking
1761225830751441200,-0.4408463361363858,-0.0802303055346012,0.6326911695718765,-0.1038955450057983,-0.2940353751182556,-0.1101951003074646,walking
1761225830761454300,-0.4833385932985693,-0.0853092162340879,0.637500031158328,-0.1445586085319519,-0.2948880195617676,-0.1157274097204208,walking
1761225830771467500,-0.5876697957908734,-0.1557522872477769,0.559537086033821,-0.1808598935604095,-0.2586104571819305,-0.1088655069470405,walking
1761225830781481200,-0.5656060306839644,-0.1602677188456058,0.3548462880939245,-0.196794793009758,-0.2179550677537918,-0.1108429133892059,walking
1761225830791494400,-0.5351596371570602,-0.1945277158439159,0.2292541613101959,-0.1941747814416885,-0.176864355802536,-0.1150573641061782,walking
1761225830801507300,-0.5197290264543145,-0.1088058271557092,0.2776379607290029,-0.1990090608596801,-0.1528900265693664,-0.1120802015066146,walking
1761225830811521300,-0.5156196183741092,-0.1170037466585636,0.4842418988138437,-0.2226845622062683,-0.1904797554016113,-0.1059551984071731,walking
1761225830821534500,-0.4351354842089116,-0.2167068144261837,0.6929612216174602,-0.2587955594062805,-0.2501341998577118,-0.0902690291404724,walking
1761225830831547100,-0.3367193144466728,-0.23083178589046,0.7121160039424895,-0.3023954927921295,-0.2806127369403839,-0.0569632686674594,walking
1761225830841560300,-0.3038517947200685,-0.2290279513388872,0.5927379293680191,-0.3328143060207367,-0.2945083677768707,-0.0076794065535068,walking
1761225830851574500,-0.3533732563992962,-0.2341635606616735,0.4164174858659505,-0.3526892066001892,-0.2716152966022491,0.033914640545845,walking
1761225830861587200,-0.4636819258660077,-0.2212216615021228,0.2492214290618896,-0.3540418744087219,-0.2527619302272796,0.0721835643053054,walking
1761225830871600400,-0.5466923636384308,-0.2594143217742443,0.0850952812224626,-0.3364474177360534,-0.2232133597135543,0.1043484210968017,walking
1761225830881614300,-0.6157732794534415,-0.3217500741779804,-0.0950806686639785,-0.3006184995174408,-0.203913539648056,0.1318594813346862,walking
1761225830891627300,-0.7306860451821238,-0.4079939409136772,-0.3291904533118009,-0.2386139929294586,-0.1547928601503372,0.1502523422241211,walking
1761225830901640400,-0.8715149771295487,-0.5040367326080799,-0.5025140530854463,-0.1539144963026046,-0.0820494964718818,0.1566027253866195,walking
1761225830911653400,-0.9553803512308746,-0.6440607048481702,-0.3929717283487319,-0.0726918205618858,-0.0438672192394733,0.1461937576532364,walking
1761225830921667300,-0.9434686719018964,-0.7592150242477655,-0.1381429807990789,-0.010299626737833,-0.0494171194732189,0.1325786411762237,walking
1761225830931680500,-0.862274124445021,-0.8294009056299925,0.1584159534990787,0.0373986512422561,-0.0687692463397979,0.126473069190979,walking
1761225830941693200,-0.7312222709506749,-0.9044669602692128,0.3615139292895793,0.0681274011731147,-0.0964203774929046,0.1246146112680435,walking
1761225830951706400,-0.636427360425517,-0.8770499610334634,0.4160767096042633,0.1013567298650741,-0.1020529642701149,0.128404289484024,walking
1761225830961720300,-0.6279392258044332,-0.8304320022433995,0.4812023849874735,0.1194599866867065,-0.0857162997126579,0.1254138797521591,walking
1761225830971733200,-0.6845845845468342,-0.8313584694385528,0.6702876175165176,0.1046325713396072,-0.0644759908318519,0.1138477772474289,walking
1761225830981746400,-0.6651472589533776,-0.8957172521024942,0.9495108016103504,0.0543214417994022,-0.0645041987299919,0.1014555990695953,walking
1761225830991760100,-0.6093307522505521,-0.9619827451705932,1.1244190402269365,-0.0143790561705827,-0.0800493359565734,0.0883935987949371,walking
1761225831001773300,-0.5006068312246352,-0.948487888303399,1.092699375361204,-0.0672382414340972,-0.0777454823255539,0.0887027010321617,walking
1761225831011786500,-0.4273548402700572,-0.8734715180248022,0.8856658136874437,-0.1164084523916244,-0.0400167442858219,0.091257207095623,walking
1761225831021799400,-0.4341576156200841,-0.7830968350946903,0.6182371122837066,-0.1439841240644455,0.0108300186693668,0.1043164432048797,walking
1761225831031813400,-0.528823894796893,-0.7278530867785215,0.2271311778068542,-0.1343512088060379,0.0943488776683807,0.1181148141622543,walking
1761225831041826300,-0.6038702948875725,-0.6900216610342264,-0.1030325044512748,-0.0796395763754844,0.149732232093811,0.1182290315628051,walking
1761225831051839200,-0.6493483629275113,-0.7170353401660918,-0.3056885816931724,-0.0027993852272629,0.140655905008316,0.1051630303263664,walking
1761225831061853400,-0.71680803421624,-0.7417740601032972,-0.3282926276892423,0.0810277163982391,0.064504787325859,0.0889475718140602,walking
1761225831071866400,-0.772473295880109,-0.7691279309749602,-0.3511632156670093,0.1675080209970474,-0.0197139512747526,0.0651397109031677,walking
1761225831081879300,-0.7834769935186952,-0.8503723819881677,-0.3106237000077962,0.2411644011735916,-0.1114965006709098,0.0321712754666805,walking
1761225831091892200,-0.8003155347906052,-0.871860575696826,-0.2588508426725864,0.2953576147556305,-0.1694665998220443,-0.0064951600506901,walking
1761225831101906200,-0.7836737581998109,-0.7644014869749546,-0.3592833937585353,0.3431891798973083,-0.1683438718318939,-0.04377206787467,walking
1761225831111919400,-0.785833274321258,-0.5853045644968747,-0.5218716645061969,0.3877462744712829,-0.0628398209810257,-0.0634142160415649,walking
1761225831121932300,-0.7391445153173059,-0.4349906689107418,-0.6958879227191209,0.4171974956989288,0.1452227234840393,-0.0764535665512085,walking
1761225831131945500,-0.56742466094587,-0.3000169657975435,-0.6560784749001264,0.4163128137588501,0.3956751823425293,-0.0588093288242816,walking
1761225831141959400,-0.2706074045050889,-0.152917356082797,-0.3127577894270419,0.3807803988456726,0.6080635786056519,-0.0009471395751461,walking
1761225831151972400,0.1213763813853729,-0.1572521704167127,0.2584574594408274,0.3157545328140259,0.6981079578399658,0.092883214354515,walking
1761225831161985300,0.5564939189456403,-0.3091986356407403,0.5014285959362983,0.2800576388835907,0.678085446357727,0.2106986790895462,walking
1761225831171999500,0.8052186505317688,-0.4030114763259887,0.2702846753567457,0.2974627315998077,0.6440236568450928,0.3142005801200866,walking
1761225831182012400,0.7400000361680984,-0.4483732975751161,0.1254360594391822,0.3466329574584961,0.566907525062561,0.3770748972892761,walking
1761225831192025300,0.573655700822547,-0.5084177241712808,0.2109627178162336,0.3794489502906799,0.4265238344669342,0.403461754322052,walking
1761225831202038300,0.4557537266826257,-0.6519400599211455,0.2550479432582855,0.3937138020992279,0.2797757387161255,0.4198432266712188,walking
1761225831212052200,0.4023829691641032,-0.7187924129664898,0.1918950292527675,0.3889395296573639,0.1558910757303238,0.4362837076187134,walking
1761225831222065400,0.2860881379598751,-0.6428828932404518,0.1191641395628452,0.3489387035369873,0.0542828142642974,0.4410479068756103,walking
1761225831232078300,0.08418239502809,-0.5194055666536093,0.0206494047969579,0.2980313003063202,-0.0069326069205999,0.4467388093471527,walking
1761225831242092300,-0.0685302094299579,-0.2937508911401033,-0.236154442217946,0.2457166016101837,0.0121345706284046,0.4567546844482422,walking
1761225831252105200,-0.167842117888946,-0.06479015981853,-0.5653267753511667,0.1998021006584167,0.099747247993946,0.4755909740924835,walking
1761225831262118400,-0.3313725831238552,0.0614706600069999,-0.7531979559153318,0.1671533286571502,0.218480572104454,0.4817618429660797,walking
1761225831272131300,-0.4866590429581701,0.0892997471749782,-0.9095762661069632,0.1409329026937484,0.3553574681282043,0.4722021520137787,walking
1761225831282145300,-0.6163581666693091,0.1501081438809633,-0.9115034347772598,0.1294838190078735,0.4777616262435913,0.45082888007164,walking
1761225831292158500,-0.6395520683173089,0.1717681870251894,-0.811425103956461,0.1367878019809723,0.5595603585243225,0.4274194240570068,walking
1761225831302171100,-0.5993129603767767,0.145746441540122,-0.6334457873314618,0.15866719186306,0.6007289290428162,0.3967064321041107,walking
1761225831312184300,-0.55887474966757,0.0643862551927566,-0.3261094384312629,0.192566305398941,0.5554786324501038,0.3524961173534393,walking
1761225831322198300,-0.5803282739216461,0.0204781398832798,0.0463093312323093,0.2299648076295852,0.4656639695167541,0.2991698384284973,walking
1761225831332211200,-0.5612816281462087,0.0808867236167192,0.2561912680745125,0.2616828083992004,0.3856918811798095,0.2492304742336273,walking
1761225831342224400,-0.4029338079798966,0.1976385413408279,0.3597743921458721,0.2872470021247864,0.3049793541431427,0.2177330106496811,walking
1761225831352238300,-0.2271093678338453,0.3936152869492769,0.4084247335463762,0.3068529367446899,0.2466151118278503,0.2169700115919113,walking
1761225831362251300,-0.1892115805887617,0.5754618003964423,0.3285100698322057,0.3323715925216675,0.2585161626338959,0.2419979572296142,walking
1761225831372264400,-0.2435923554000444,0.6849374896377325,0.1738835717439651,0.3538656830787658,0.3198647499084472,0.2582259476184845,walking
1761225831382277400,-0.2588970564344898,0.7228583472311496,0.1521492943197488,0.3567383885383606,0.4157983958721161,0.2656824290752411,walking
1761225831392291300,-0.2464493705326691,0.7292951022803783,0.3771744397580623,0.3383548557758331,0.5001135468482971,0.266283243894577,walking
1761225831402304500,-0.1312530294890981,0.6220686532706022,0.7659586532890796,0.2932676076889038,0.5457698106765747,0.2693412899971008,walking
1761225831412317200,0.0921911121017765,0.4488701411813497,1.1621826614320276,0.2483981251716613,0.5337345004081726,0.2721999287605285,walking
1761225831422331400,0.2599229288835078,0.2964624881863594,1.530918358668685,0.1822783201932907,0.4586893916130066,0.2755191326141357,walking
1761225831432344300,0.3718231418579816,0.1442354524552822,1.7868500990241765,0.1163088977336883,0.3399257361888885,0.2697714865207672,walking
1761225831442357200,0.4457183626195415,0.0457283164739608,1.8240140007704493,0.0530140772461891,0.2177537679672241,0.2511557042598724,walking
1761225831452370400,0.5100603768117725,-0.0152022453069686,1.6863070733010768,-0.0031937984749674,0.1299629360437393,0.2290317714214325,walking
1761225831462384400,0.452085742226988,-0.065416767284274,1.4931605826824903,-0.0618960708379745,0.0807009488344192,0.2058081328868866,walking
1761225831472397300,0.4083559791591018,-0.0424397963225841,1.339022160372138,-0.1201710924506187,0.0523145757615566,0.1738544553518295,walking
1761225831482410500,0.4738516568984836,0.0148234751224517,1.2368991719812157,-0.1715095490217209,0.0342146605253219,0.1613469123840332,walking
1761225831492423200,0.6050336395785212,0.093684830391407,1.171385958585143,-0.2216962873935699,-0.0038954420015215,0.1678319722414016,walking
1761225831502437400,0.6634384092088789,0.0625245529741048,0.8661100493460893,-0.2297831624746322,-0.048631764948368,0.1879752874374389,walking
1761225831512450600,0.5526613550454378,0.0338362186282873,0.3884966287612915,-0.2156343162059784,-0.04738300293684,0.1834412664175033,walking
1761225831522463200,0.2932659754336811,0.0100444241523742,0.1319447106808424,-0.1906683593988418,-0.0416150689125061,0.1511223167181015,walking
1761225831532477400,0.0747784470366081,0.0196855282008647,0.0321375980168581,-0.1775051653385162,-0.0491888336837291,0.102793663740158,walking
1761225831542490400,-0.0143392307028872,-0.0342652576953172,-0.0535620788395404,-0.1693165451288223,-0.0407301485538482,0.0545919723808765,walking
1761225831552503300,-0.0279456855852389,-0.0609177022993564,-0.188994047114253,-0.1611787229776382,-0.0067170518450438,0.0146669279783964,walking
1761225831562516500,0.0057893605237826,0.0381990900129079,-0.2470896777302026,-0.1539162099361419,0.0469764582812786,-0.0073679401539266,walking
1761225831572530200,0.0863535741878673,0.1378080497562885,-0.224171743479371,-0.1495092213153839,0.1260555684566497,-0.0185031481087207,walking
1761225831582543400,0.1902033498387783,0.2236632094353437,-0.1331622697770595,-0.1380017399787902,0.1875769197940826,-0.0200250018388032,walking
1761225831592557000,0.3213376209195703,0.2435901451766491,-0.0370469973683357,-0.123181514441967,0.2328626364469528,-0.0145016061142086,walking
1761225831602569700,0.5081332812067121,0.2443792497277259,0.0369452905595302,-0.0966721847653389,0.2732276916503906,0.012471780180931,walking
1761225831612584000,0.60555101451613,0.201817872852087,0.2000824273616075,-0.0732552707195282,0.2699877023696899,0.0331459008157253,walking
1761225831622596900,0.6571756224870682,0.0524029719322919,0.4828144963592291,-0.0560659356415271,0.2037205696105957,0.0451608411967754,walking
1761225831632609800,0.6962576328143477,-0.0963356371611356,0.7646960860073566,-0.0517161935567855,0.0861968696117401,0.0446844026446342,walking
1761225831642624000,0.7369456900987774,-0.1870335606962442,0.856046920493245,-0.0461147874593734,-0.0389487743377685,0.0436072014272213,walking
1761225831652637000,0.7123460863713175,-0.1812117226749658,0.7747732433855533,-0.0474290549755096,-0.1549456864595413,0.0443377085030078,walking
1761225831662649900,0.6597646160669625,-0.0892939019560813,0.5689508110672236,-0.0427308045327663,-0.2320869266986847,0.0503517240285873,walking
1761225831672663000,0.5562667591262609,0.0246761760950088,0.3712152390927076,-0.0431609041988849,-0.2680752873420715,0.0567081570625305,walking
1761225831682677000,0.4387614196211099,0.1238911680847406,0.2545551913052797,-0.0576088353991508,-0.2936269640922546,0.0623754076659679,walking
1761225831692690000,0.3547933523302897,0.1502028364270925,0.1549181745111942,-0.0791578069329261,-0.3253484070301056,0.0672982633113861,walking
1761225831702703000,0.2541669774389826,0.1708896506249904,-0.2542255209594964,-0.0574440620839595,-0.3261357843875885,0.0761987268924713,walking
1761225831712716800,0.1223389154077507,0.2564320910930633,-0.8623316998511552,0.0131811033934354,-0.2778705358505249,0.0736580714583396,walking
1761225831722730000,-0.0447773632915224,0.3519160798609256,-1.17946697371006,0.1081839501857757,-0.2299360185861587,0.037120584398508,walking
1761225831732743000,-0.1624642790418118,0.3690349724441766,-1.1191104124248028,0.2022289633750915,-0.2469754517078399,-0.0112245753407478,walking
1761225831742755800,-0.1273567983686924,0.3365823171287775,-0.8523755385041236,0.2793243825435638,-0.3103209137916565,-0.0443455725908279,walking
1761225831752770000,-0.0055948425986804,0.1335971540629863,-0.5572253019601107,0.3149678707122803,-0.423862099647522,-0.1038187518715858,walking
1761225831762782700,0.2149487187124788,-0.0650970338106155,-0.2950549594759941,0.3084891140460968,-0.5521436333656311,-0.1366437971591949,walking
1761225831772796000,0.3790550293402746,0.069034957781434,-0.1306727910488843,0.2793506681919098,-0.6258500814437866,-0.1207417920231819,walking
1761225831782809000,0.3900875512145459,0.1606762996464967,-0.0892915638685226,0.21065254509449,-0.6354275941848755,-0.0969102308154106,walking
1761225831792822800,0.3067421823993325,0.1143903492897748,-0.0779927557408809,0.1218435913324356,-0.6249906420707703,-0.0839859098196029,walking
1761225831802836000,0.1779742568573914,0.0462660766124725,-0.1298468616187572,0.031669545918703,-0.5966463685035706,-0.0900024473667144,walking
1761225831812849200,0.0333001024575904,-0.0124707745164632,-0.3492231875151395,-0.0339382253587245,-0.5373995900154114,-0.1100232973694801,walking
1761225831822862800,-0.095572288105823,-0.0633025516092777,-0.7469874108374118,-0.0500828400254249,-0.4476630985736847,-0.1351256668567657,walking
1761225831832876000,-0.1979019415173679,-0.0974053122192621,-1.0444166982293128,-0.0323879979550838,-0.3685605525970459,-0.1716133654117584,walking
1761225831842889000,-0.2720964740190655,-0.2400701543569564,-0.964797218069434,0.0022319934796541,-0.3726232945919037,-0.2370782494544983,walking
1761225831852902000,-0.2353854671394452,-0.4377069421321153,-0.7921171768963337,0.0352991297841072,-0.4259048998355865,-0.3028364777565002,walking
1761225831862916000,-0.1438273465784266,-0.5273264227807521,-0.6376841555535793,0.05577003210783,-0.4953967630863189,-0.3562073111534118,walking
1761225831872928800,-0.1201369301177561,-0.561756515648961,-0.5329781649321317,0.0573239885270595,-0.5611504316329956,-0.4038507342338562,walking
1761225831882942000,-0.1437667389649897,-0.5546317783355712,-0.5478349578022956,0.0375915206968784,-0.5928264260292053,-0.4380306601524353,walking
1761225831892955000,-0.2334808390945196,-0.5245271474510431,-0.6313192966967821,0.0112816225737333,-0.5806520581245422,-0.4833411276340484,walking
1761225831902968800,-0.4288866529472172,-0.5243325016617775,-0.6812427267730236,-0.0293085668236017,-0.5380495190620422,-0.5313196778297424,walking
1761225831912982000,-0.5540921550335363,-0.4030763582557439,-0.6900912191390991,-0.0779575929045677,-0.4704970717430115,-0.5704183578491211,walking
1761225831922995000,-0.5951186139594763,-0.2556546769797801,-0.6442717172503472,-0.1261582672595977,-0.4082456529140472,-0.5940461158752441,walking
1761225831933009000,-0.5641752672284841,-0.0955132148623466,-0.5148258376479149,-0.1789365261793136,-0.366380512714386,-0.6011404991149902,walking
1761225831943022000,-0.4664849275227636,0.104181089964509,-0.4827145431160926,-0.1977171599864959,-0.3200025856494903,-0.5859020948410034,walking
1761225831953034800,-0.4284165877500548,0.3225923702210188,-0.5247253003716469,-0.1856133490800857,-0.2817193865776062,-0.5606992840766907,walking
1761225831963048000,-0.4667347740979864,0.5139660059481859,-0.6011737492799759,-0.1401507407426834,-0.2339385002851486,-0.5324401259422302,walking
1761225831973062100,-0.5229410107707605,0.6060960081130266,-0.6670259853720665,-0.0664123371243476,-0.1746663898229599,-0.5079305768013,walking
1761225831983074800,-0.5464874521834775,0.6300608210682869,-0.6141010353922843,0.0117001766338944,-0.1160835698246955,-0.4921229183673858,walking
1761225831993088000,-0.5186136490909382,0.6141226627022027,-0.3792132521092891,0.0928906351327896,-0.0831724926829338,-0.4723870158195495,walking
1761225832003101000,-0.4654660693364217,0.5619014770776033,-0.1346785195589065,0.1678342074155807,-0.0707805454730987,-0.4559265673160553,walking
1761225832013115000,-0.4130848343119025,0.4999713828653097,0.1730804386675357,0.2262708842754364,-0.0801261067390441,-0.4449370205402374,walking
1761225832023128000,-0.3855253578655421,0.4645739062696695,0.5594324566155672,0.2499093115329742,-0.1214672029018402,-0.432088702917099,walking
1761225832033141000,-0.3187701815843582,0.4854810852199792,0.8689023104131222,0.2443235963582992,-0.1661390662193298,-0.4027049839496612,walking
1761225832043155000,-0.241463234416861,0.4604956970453262,1.1249328349679708,0.2090917229652404,-0.2138554006814956,-0.3659702837467193,walking
1761225832053167900,-0.1188181391367688,0.4443161311388015,1.2652093206644055,0.1495213359594345,-0.2437275350093841,-0.3084774315357208,walking
1761225832063180800,-0.0833570775193162,0.4389186560094356,1.2542547959297894,0.0789049118757247,-0.2533608078956604,-0.2501599490642547,walking
1761225832073194000,-0.2040762279718183,0.4246370326787233,1.1446318071722985,0.0103732580319046,-0.2281579822301864,-0.2019260823726654,walking
1761225832083208000,-0.3525342482918873,0.4168348344951867,1.0152759439408778,-0.044502355158329,-0.1837020516395568,-0.1723617315292358,walking
1761225832093220900,-0.4028341835303232,0.4135930760949849,0.9396581006377936,-0.0925159528851509,-0.1417050659656524,-0.1564432233572006,walking
1761225832103233800,-0.4377741621494292,0.3963619553089141,0.8527426182508469,-0.1302443146705627,-0.1169540956616401,-0.1440990567207336,walking
1761225832113247700,-0.4264388214036822,0.3505366082012653,0.6876058320641517,-0.1475380808115005,-0.0895720049738884,-0.1289190351963043,walking
1761225832123261000,-0.3860824802916496,0.3644774552702903,0.501104770809412,-0.1371332556009292,-0.0618264265358448,-0.1061679720878601,walking
1761225832133273900,-0.3563186256688088,0.3679132749378681,0.4005927247464657,-0.1084116026759147,-0.0477798543870449,-0.0846975669264793,walking
1761225832143287000,-0.2606879219066351,0.3625952947854995,0.4684557161390781,-0.0812434032559394,-0.068842738866806,-0.0538183897733688,walking
1761225832153301000,-0.1120928860023617,0.3669938220053911,0.5977297463059426,-0.0606726147234439,-0.1319375485181808,-0.0168188270181417,walking
1761225832163314000,0.0338447124619968,0.305032748132944,0.722773591557145,-0.0480988956987857,-0.1912752389907837,0.0406675264239311,walking
1761225832173326800,0.1092603111912496,0.3198556387335062,0.7508546076595782,-0.0401115454733371,-0.2485081553459167,0.10397619754076,walking
1761225832183339800,0.0672238897714763,0.3304869228631258,0.7337316234230995,-0.0276287198066711,-0.2815739512443542,0.1756914556026458,walking
1761225832193354000,-0.0893655424201861,0.2927665562778711,0.6723211691707373,-0.0143754994496703,-0.2937565743923187,0.2418593019247055,walking
1761225832203367000,-0.3239005667427554,0.1050561192333698,0.6288140358775853,-0.0016421845648437,-0.2938837707042694,0.2772001028060913,walking
1761225832213379800,-0.618836101090163,-0.1048088664740324,0.5556172822415828,0.0123234326019883,-0.264207124710083,0.2869262397289276,walking
1761225832223393800,-0.8804018287446349,-0.2688502586394548,0.4377554574489593,0.0375460423529148,-0.1988644301891327,0.2688096463680267,walking
1761225832233407000,-1.0703536880403757,-0.4349333857655525,0.410765743714571,0.0698256865143776,-0.120069220662117,0.2355078756809234,walking
1761225832243420000,-1.0763134001623835,-0.455102313569188,0.6096551618993282,0.0942950919270515,-0.0837455987930297,0.2164342701435089,walking
1761225832253433000,-0.9366176369633524,-0.4533966786950826,0.8943664220154285,0.0916622877120971,-0.0888311713933944,0.1903813630342483,walking
1761225832263447000,-0.8495891226559877,-0.6376344711929559,1.0676607956945896,0.0635546594858169,-0.1040447354316711,0.1697991490364074,walking
1761225832273460000,-0.7662673539120703,-0.7294500005811453,1.0586983215600252,0.0053739137947559,-0.0978843122720718,0.1477505713701248,walking
1761225832283473000,-0.8747716408379376,-0.7656225532025098,0.9535293896019458,-0.0540222823619842,-0.0373181924223899,0.1006967276334762,walking
1761225832293485800,-1.0578710769556463,-0.742531600472331,0.9612895022094248,-0.1301604658365249,0.0130126234143972,0.0652401968836784,walking
1761225832303500000,-1.0177847118914127,-0.7466156549155711,1.0961334414631128,-0.2122632414102554,0.0052745593711733,0.0497805811464786,walking
1761225832313513000,-0.8926338991343975,-0.8154834394365549,1.1492249801814556,-0.2960324287414551,-0.0439539737999439,0.0539526902139186,walking
1761225832323526000,-0.8140648048102855,-0.8025076380074023,1.0308101976811883,-0.3725879192352295,-0.115329623222351,0.0608734488487243,walking
1761225832333539800,-0.860822318201512,-0.7325871295630931,0.727303636202216,-0.4143999218940735,-0.2031390815973281,0.0725927054882049,walking
1761225832343552800,-1.0284380617223678,-0.5773042133927345,0.1606073260635137,-0.4074383676052093,-0.2674048542976379,0.0825519412755966,walking
1761225832353566000,-1.2751672355771064,-0.3597188625663519,-0.4639414535850286,-0.3569285869598388,-0.2669510543346405,0.1022023409605026,walking
1761225832363579100,-1.4291384846270083,-0.2447013212889432,-0.9906418534219265,-0.2732326090335846,-0.2587184607982635,0.1085611209273338,walking
1761225832373592800,-1.5591988428659735,-0.2046925515055656,-1.38663146828711,-0.1586008369922638,-0.2062842696905136,0.1267310678958892,walking
1761225832383606000,-1.6156496288843452,-0.2093658040136098,-1.690286498326063,-0.0154997706413269,-0.1048323437571525,0.134485438466072,walking
1761225832393619000,-1.6923913616508244,-0.2128302652537822,-1.6448621332347393,0.1306249499320984,0.0106955841183662,0.1382293105125427,walking
1761225832403631900,-1.7880552370302378,-0.2579150231271982,-1.3013146532684563,0.2513178586959839,0.1030820459127426,0.1297009140253067,walking
1761225832413646000,-1.797981441630423,-0.404390947985649,-0.761996763920784,0.3396389484405517,0.1342620700597763,0.1092291995882988,walking
1761225832423658800,-1.7600559078618885,-0.5706926862984896,-0.2951853078573942,0.4090094864368438,0.1380802392959594,0.0714911371469497,walking
1761225832433672000,-1.7400497694045305,-0.6856102743327617,0.0251525614351034,0.4555498361587524,0.147452175617218,0.0263724010437726,walking
1761225832443686000,-1.7875570782497523,-0.7030798800498247,0.419609559905529,0.4707754850387573,0.1373591274023056,-0.0382275246083736,walking
1761225832453698800,-1.8187034732721743,-0.6978022319078445,0.7767658785074949,0.4564021527767181,0.1309496909379959,-0.1032153069972992,walking
1761225832463712000,-1.7220014870166778,-0.6019079087734222,1.0536802011370658,0.4232596755027771,0.1269900798797607,-0.1522532105445861,walking
1761225832473725000,-1.5573440087795256,-0.4751256954222917,1.2526754177838564,0.3802435100078583,0.1216983720660209,-0.1800076067447662,walking
1761225832483739000,-1.3926236944392325,-0.3185615072697401,1.35410633225739,0.3167793452739715,0.128085121512413,-0.188497319817543,walking
1761225832493752000,-1.285875092074275,-0.1896364366710186,1.3662369150340556,0.2537601590156555,0.1344407498836517,-0.1772153824567794,walking
1761225832503765000,-1.2250636996936053,-0.0845990221381187,1.3274819447040558,0.1984626650810241,0.1321707516908645,-0.1556854397058487,walking
1761225832513778000,-1.231849487376213,-0.0340220965892076,1.190328559464216,0.1584289520978927,0.1114297956228256,-0.1303646266460418,walking
1761225832523792100,-1.2857960354886948,-0.028446926805377,0.8838555493950844,0.1575327664613723,0.1077090203762054,-0.1211752444505691,walking
1761225832533804800,-1.3470185659535228,0.0163292035102844,0.5126052389889956,0.1969571411609649,0.1352794021368026,-0.1189578995108604,walking
1761225832543818000,-1.342308050175011,0.0168476744264364,0.220072491466999,0.2478585392236709,0.2060261815786361,-0.135675773024559,walking
1761225832553832000,-1.1520454444296655,-0.1438882464528083,0.0930336730062961,0.300094872713089,0.3260684311389923,-0.1521527469158172,walking
1761225832563844900,-0.8088510887499898,-0.2548778473883867,0.2361333994299173,0.3228678405284881,0.4348127245903015,-0.1448758095502853,walking
1761225832573858000,-0.343470944131352,-0.3761819215893745,0.560590979000926,0.3335860073566437,0.4806912541389465,-0.0946664437651634,walking
1761225832583871000,0.0474610585507005,-0.5354267271280289,0.9224351631581784,0.3252836167812347,0.4569935798645019,-0.0363385118544101,walking
1761225832593884700,0.2222605395631864,-0.8357026361227035,1.4432576108723878,0.2731993794441223,0.2901952862739563,-0.0084032844752073,walking
1761225832603897600,0.1799389627927914,-1.1401859336793423,1.8868752383530136,0.1737411618232727,-0.0066310758702456,-0.0099205179139971,walking
1761225832613910800,0.0201942083753645,-1.254004036039114,1.964787330073118,0.0516006089746952,-0.3428996503353119,-0.0491278432309627,walking
1761225832623923700,-0.2493414387123659,-1.1889853281617164,1.5856892287760973,-0.0927387848496437,-0.6315280199050903,-0.1133607029914856,walking
1761225832633937700,-0.5849228351702913,-0.883306098818779,0.7928361388206482,-0.2340407967567443,-0.7736915946006775,-0.1682298183441162,walking
1761225832643950600,-0.8799800231359899,-0.3506201948314905,-0.2054015765577554,-0.3651346266269684,-0.7027492523193359,-0.2173390388488769,walking
1761225832653963500,-1.050036730068177,0.1415367148905992,-1.1846411614775656,-0.4638026058673858,-0.4790330231189728,-0.2510210871696472,walking
1761225832663977700,-1.1066454831272363,0.6035527533710002,-2.035662362763285,-0.4950844347476959,-0.1260531693696975,-0.2433371543884277,walking
1761225832673990700,-0.818002728781104,0.8659346927791833,-2.5810277155816554,-0.4681875705718994,0.2226377129554748,-0.2067304104566574,walking
1761225832684003600,-0.4934483743047341,1.0795797815471886,-2.795501656389236,-0.3704560697078705,0.5455529689788818,-0.1436874270439148,walking
1761225832694016800,-0.2612675849581137,1.2498515925347804,-2.78589036295712,-0.2100754529237747,0.792923629283905,-0.075864166021347,walking
1761225832704030700,-0.0251431725522503,1.2446984475553036,-2.356796350869536,-0.0206305608153343,0.9160802364349364,-0.0256184600293636,walking
1761225832714043600,0.2064746308830566,1.123639872547984,-1.6921873635113238,0.1580893844366073,0.9231551885604858,0.0135332038626074,walking
1761225832724056800,0.4296489060239866,0.9720084646224976,-0.8681891937077045,0.3077247440814972,0.8091965913772583,0.0448886379599571,walking
1761225832734069500,0.6919594241637737,0.8466524846822023,-0.1000999581307172,0.4229610562324524,0.6333046555519104,0.0785107836127281,walking
1761225832744083700,0.9645436816997826,0.6977806045979261,0.434910004889965,0.5032244920730591,0.4492434859275818,0.1186746954917907,walking
1761225832754096600,1.1210860964119431,0.5692091697424649,0.8564911571294069,0.5445530414581299,0.2874663174152374,0.1541309505701065,walking
1761225832764109600,1.157720275195688,0.4502577961474657,1.2317308294326066,0.5289172530174255,0.1644020974636078,0.1596992462873459,walking
1761225832774123800,1.1551041744131594,0.3159475253790617,1.551339799928665,0.4574617147445678,0.0822840631008148,0.1540219187736511,walking
1761225832784136700,1.1993871143843975,0.2276210071504116,1.76118140476048,0.3441193699836731,0.0268463250249624,0.1590839922428131,walking
1761225832794149600,1.300816494487971,0.0575379967331886,1.763482667440176,0.2096691578626632,-0.0043334327638149,0.1648015230894088,walking
1761225832804162800,1.3004486840888858,-0.0789309133738279,1.5899527314394712,0.076294407248497,0.0020882654935121,0.1661499142646789,walking
1761225832814176800,1.2287250717453655,-0.0750409201979637,1.4356728548318147,-0.046363066881895,-0.0005184365436434,0.1521965563297271,walking
1761225832824189700,1.1326758503101766,-0.0717459703058004,1.3507646206140518,-0.1672467738389969,-0.0537236109375953,0.1275843977928161,walking
1761225832834203000,1.0615757766924798,-0.0929138460189104,1.114531267940998,-0.2707297503948211,-0.1205857321619987,0.0969351455569267,walking
1761225832844215600,1.015135585622117,-0.0489297428637742,0.6502922927141189,-0.3410718142986297,-0.1397514641284942,0.0757091715931892,walking
1761225832854229800,0.8800942971654235,0.0145382284402847,0.1880576430469751,-0.3946375548839569,-0.1153390631079673,0.0610119812190532,walking
1761225832864242700,0.7098345419418066,0.0993476784586906,-0.1533569165438413,-0.433368444442749,-0.0961207970976829,0.0410743989050388,walking
1761225832874255600,0.5389888035237789,0.1595078403890132,-0.4419160842597484,-0.4548558890819549,-0.0613265968859195,0.0065174847841262,walking
1761225832884269800,0.3796623110510408,0.1524737039685249,-0.7416969032138586,-0.4538110196590423,0.0085604283958673,-0.0321416072547435,walking
1761225832894282500,0.2475122322575189,0.2420955227047204,-1.04736853377223,-0.427945613861084,0.0914542451500892,-0.0706943273544311,walking
1761225832904295700,0.1516609993461519,0.3347270446509122,-1.3686305321723222,-0.3624265193939209,0.2167859524488449,-0.1009616330265998,walking
1761225832914308900,0.0502086036931723,0.4058908311545848,-1.6342893012940882,-0.2631920874118805,0.3927910625934601,-0.1454220414161682,walking
1761225832924322600,-0.0196759657880757,0.5091477920114994,-1.5889759953618048,-0.1480553448200225,0.5594515204429626,-0.1944804936647415,walking
1761225832934335700,0.1023364393453579,0.5952724162817001,-1.146305877864361,-0.0497450195252895,0.634590208530426,-0.2313423752784729,walking
1761225832944348700,0.4125185421986505,0.586014758592844,-0.5238046783953905,0.0177106074988842,0.6301681995391846,-0.2378382384777069,walking
1761225832954361600,0.7962173056915401,0.4938455934613943,0.0049345337927341,0.0594327561557292,0.602788507938385,-0.2091530710458755,walking
1761225832964375800,1.081232224929333,0.4409183053940534,0.5002881937295198,0.0729364305734634,0.5237501263618469,-0.1631912291049957,walking
1761225832974388500,1.1967738631460816,0.3509346676081419,0.9825117384582758,0.0541648715734481,0.4024721682071686,-0.117829605937004,walking
1761225832984401700,1.2220178291916846,0.2629530172944069,1.2676479459881782,0.0157710090279579,0.2810235619544983,-0.0739070549607276,walking
1761225832994415900,1.1250027583990243,0.1782715775698423,1.3178665596187114,-0.0390363112092018,0.1727367639541626,-0.0343545787036418,walking
1761225833004428500,1.0079292344398796,0.1244429567486047,1.239896600231528,-0.0972232073545456,0.1010819226503372,0.00123813143,walking
1761225833014441700,0.8910292404167354,0.1911480102777481,0.9952537311315536,-0.1444559693336486,0.0777039006352424,0.0533205047249794,walking
1761225833024454700,0.6657921327281743,0.2041992150306701,0.7098124031752348,-0.1800076365470886,0.0757185891270637,0.0852183923125267,walking
1761225833034468600,0.3940358139162883,0.1408516552358865,0.5287053099185228,-0.2102464735507965,0.0695246085524559,0.0960230976343154,walking
1761225833044481800,0.1712722750007174,0.0822176799595355,0.4224246173262596,-0.2190534472465515,0.0417968034744262,0.0910538509488105,walking
1761225833054494700,0.0229532612925395,0.0408382063448429,0.2879191162467002,-0.214851513504982,0.0007327254861593,0.0676537156105041,walking
1761225833064507600,-0.1161896355303935,0.0031195933252573,0.1143394958853721,-0.1972161382436752,-0.0094993002712726,0.0404065661132335,walking
1761225833074521900,-0.1591069131716154,0.101353757584095,-0.0452466704368591,-0.1669061779975891,0.0200031977146863,0.0259908773005008,walking
1761225833084534500,-0.1211079305743798,0.1788262888431549,-0.0829775584161281,-0.1355011761188507,0.0493785254657268,0.0191178116947412,walking
1761225833094547700,-0.0394472634430974,0.1463409003019332,-0.0333697701603174,-0.1070522293448448,0.0768066868185997,0.0172770339995622,walking
1761225833104561700,0.0179298619062639,0.0622451515108346,0.0680909549295902,-0.0889452844858169,0.0782020092010498,0.0154318837448954,walking
1761225833114574600,0.0474626842522062,-0.0415583373129367,0.2277256365686654,-0.0808442160487175,0.0523821227252483,0.0085087297484278,walking
1761225833124587800,0.0968499433588236,-0.1128226615816354,0.2765793915867805,-0.0682899802923202,0.0278123244643211,-0.0018531122477725,walking
1761225833134600700,0.1410653345191851,-0.1723883647501468,0.2856266213953495,-0.0564327836036682,-0.0069741522893309,-0.002747667953372,walking
1761225833144614700,0.2129137788187712,-0.2120353154838085,0.2543815883040428,-0.0414764732122421,-0.0552406087517738,-9.91029664874e-05,walking
1761225833154627600,0.2942422731199302,-0.2296522207170724,0.2076420489609241,-0.0124240461736917,-0.1102628484368324,0.0072072790935635,walking
1761225833164640800,0.3181019999992102,-0.2048217308431863,0.1664040296435356,0.0150487776845693,-0.1838248372077942,0.0149644529446959,walking
1761225833174653700,0.269462709715683,-0.2250456037044525,0.1929448305666446,0.0339372493326664,-0.2764525115489959,0.0201357789337635,walking
1761225833184667600,0.1839488377549685,-0.2640636088848114,0.2250403430074453,0.0468974076211452,-0.3737422823905945,0.0192822962999343,walking
1761225833194680600,0.123690485280333,-0.3082908731460571,0.1598345881253481,0.0567207410931587,-0.4641227722167969,0.0211065616458654,walking
1761225833204693800,0.0772494082939811,-0.3571867137402296,0.0035164836883544,0.0622264891862869,-0.5121069550514221,0.017105983570218,walking
1761225833214707700,-0.0135200187079142,-0.4405132317245006,-0.1577145272314548,0.0582384020090103,-0.5188183784484863,0.0106576709076762,walking
1761225833224720600,-0.1667991116420366,-0.5569026458770037,-0.1542670171260833,0.0379452481865882,-0.5314659476280212,-0.0098395077511668,walking
1761225833234733600,-0.3756677249895409,-0.7244698740810156,-0.0184469263166189,-0.0177829936146736,-0.581761360168457,-0.0519520714879035,walking
1761225833244746800,-0.566482338594459,-0.8912596881717443,-0.0156932436943054,-0.0911222845315933,-0.6375204920768738,-0.1130889132618904,walking
1761225833254760700,-0.7410838858820498,-0.9890653978854416,-0.1768020895391702,-0.1764353215694427,-0.6468729972839355,-0.182778775691986,walking
1761225833264773600,-0.9084222007010132,-0.8977882131576538,-0.3905523922473192,-0.2606250941753387,-0.6414964199066162,-0.2487058639526367,walking
1761225833274786800,-1.0427468653209506,-0.7576239556640386,-0.759415515255928,-0.3185634911060333,-0.6015069484710693,-0.3040122389793396,walking
1761225833284799500,-1.1054396144688128,-0.5353852260738611,-1.3049030331492424,-0.3274129927158355,-0.4816843271255493,-0.3457733988761902,walking
1761225833294813700,-1.1147441800393163,-0.2538917589604854,-1.6730699905872344,-0.3024066984653473,-0.3383841514587402,-0.3743208944797516,walking
1761225833304826600,-1.0519794616337863,-0.0497094950646162,-1.7063123349756002,-0.2598218321800232,-0.2139829844236374,-0.3885235786437988,walking
1761225833314839600,-0.838129497943446,0.0452127681672573,-1.4910568884015083,-0.2021540403366089,-0.1423138678073883,-0.3784365952014923,walking
1761225833324852700,-0.6134773505359887,0.046505730587244,-1.200642448207736,-0.1310153305530548,-0.1097384542226791,-0.3601174354553222,walking
1761225833334866700,-0.3951644160874187,0.0251128139466047,-0.7565478508651257,-0.0602639317512512,-0.160614937543869,-0.3379671275615692,walking
1761225833344879600,-0.2184230437595397,0.0512789363384246,-0.2764215706765651,0.0049903630279004,-0.282539814710617,-0.3132956326007843,walking
1761225833354892800,-0.1011145602670498,0.0553542229533195,0.041693946391344,0.0703512579202652,-0.4230937361717224,-0.2837830185890198,walking
1761225833364906800,-0.0588293882505968,0.0670072513461113,0.1598071155965328,0.1219977587461471,-0.5293605327606201,-0.2563239336013794,walking
1761225833374919700,-0.145174614735227,0.1045943469405174,0.177539171642065,0.1560284197330474,-0.5759256482124329,-0.2290630042552948,walking
1761225833384932900,-0.3506704271813854,0.1258013856202363,0.2154910088956356,0.1697772145271301,-0.5776156187057495,-0.2133891582489013,walking
1761225833394945500,-0.5638532321998849,0.1242956572324037,0.2263701303064823,0.160668134689331,-0.5546823143959045,-0.2143068760633468,walking
1761225833404959700,-0.7122045590087771,0.0712836134910583,0.1037111343652009,0.1553603410720825,-0.4930283427238464,-0.234390452504158,walking
1761225833414972700,-0.8726039414100348,0.0818172824651002,-0.0328624051600694,0.1562780737876892,-0.3819484114646911,-0.2693694829940796,walking
1761225833424985600,-0.9814142986103892,0.156291216430068,-0.0315606749117374,0.1511783301830291,-0.270035982131958,-0.310699850320816,walking
1761225833434998800,-1.0106457268569615,0.2267471469253301,0.0814414348900318,0.1476919800043106,-0.1815103590488433,-0.3506536781787872,walking
1761225833445012500,-0.9048550828039644,0.2541810972958803,0.3196224144995212,0.1358213722705841,-0.1426758468151092,-0.3831113576889038,walking
1761225833455025700,-0.7878047935899347,0.2402396657049655,0.5894383033007383,0.1081415563821792,-0.1419024616479873,-0.407003104686737,walking
1761225833465038800,-0.6222510241001844,0.2336626254022121,0.7942980280667543,0.0709302276372909,-0.1545996963977813,-0.4142438173294067,walking
1761225833475052500,-0.4757523759532719,0.258534616330266,0.970783891263604,0.0186965893954038,-0.1836606413125991,-0.4128435254096985,walking
1761225833485065700,-0.3448349259609356,0.2878051344782114,1.082404775840044,-0.0456557497382164,-0.2134798020124435,-0.390783280134201,walking
1761225833495078700,-0.2388099434291012,0.3185603382259607,1.0522118821501731,-0.1113625913858413,-0.2444390505552292,-0.3586085736751556,walking
1761225833505091600,-0.2074962107494473,0.3540390633642673,0.9014999271571636,-0.1728730201721191,-0.2695631682872772,-0.3224668204784393,walking
1761225833515105800,-0.3239023568410426,0.3687485567182302,0.6445896971583366,-0.2210301458835601,-0.2460400164127349,-0.3011234700679779,walking
1761225833525118500,-0.4229585780724882,0.456902056467533,0.4095762416690587,-0.25763800740242,-0.2111142873764038,-0.2731688916683197,walking
1761225833535131600,-0.4710346997816115,0.5468529610276222,0.2222223629772663,-0.2820115387439728,-0.179751306772232,-0.2379797101020813,walking
1761225833545144800,-0.4105434792660176,0.5401081629425287,0.002543839263916,-0.2870637476444244,-0.1538832187652588,-0.1906526535749435,walking
1761225833555158500,-0.3168528767209499,0.5751783072799443,-0.1830044513106346,-0.267480731010437,-0.131542220711708,-0.1388616263866424,walking
1761225833565171700,-0.290939066856075,0.674679130473733,-0.3372469185173511,-0.2229666262865066,-0.1105437129735946,-0.0730306655168533,walking
1761225833575184600,-0.358755095568113,0.7176900046825408,-0.3920224647998809,-0.1600598245859146,-0.0906688049435615,-0.005722464993596,walking
1761225833585197600,-0.3969626976810395,0.6669850688397884,-0.3829916016042232,-0.0817984044551849,-0.0761002451181411,0.0525712147355079,walking
1761225833595212500,-0.4773307311858981,0.5323018731057644,-0.3497054180741309,0.0061125420033931,-0.053453255444765,0.0967173725366592,walking
1761225833605225200,-0.5483753117566927,0.4234241497576236,-0.2663105110287666,0.0972857102751731,-0.0256790407001972,0.1203190982341766,walking
1761225833615238400,-0.6688017628729342,0.3031879970490932,-0.0059966100662946,0.1693061143159866,-0.0054339580237865,0.1299155354499817,walking
1761225833625252600,-0.7376501120410859,0.1348041917651891,0.379482132178545,0.2119547426700592,-0.0031165899708867,0.1273311972618103,walking
1761225833635265300,-0.7396284263767302,-0.0518231262177228,0.7255664371460676,0.2294754087924957,0.0048004551790654,0.1134587824344635,walking
1761225833645278500,-0.6873059723347426,-0.1635977400511503,1.0499953751444815,0.2064826935529709,0.0099568236619234,0.1064098551869392,walking
1761225833655291400,-0.6850359815761446,-0.2637321849733591,1.3684575136929749,0.1470214873552322,-0.0059795323759317,0.0926490351557731,walking
1761225833665305300,-0.7056431546665728,-0.3815729669779539,1.615559466382861,0.0674181282520294,-0.028348134830594,0.0762012377381324,walking
1761225833675318500,-0.7415140939928591,-0.482863011676073,1.5605518649101255,-0.0064664809033274,-0.0299835819751024,0.0581087917089462,walking
1761225833685331500,-0.754650858137384,-0.4672679676592349,1.343134271866083,-0.0604155585169792,0.0080624911934137,0.0422039255499839,walking
1761225833695344400,-0.8319399225883185,-0.3873912978678941,1.224941607683897,-0.1091391593217849,0.0529972091317176,0.0188261643052101,walking
1761225833705358600,-0.8302545998498797,-0.3025660657584667,1.2029133157491685,-0.1471216678619384,0.0653659626841545,0.0164567045867443,walking
1761225833715371300,-0.7035355879280716,-0.2413467501640319,1.0943132402986286,-0.1759759485721588,0.0727612972259521,0.0310689378529787,walking
1761225833725384400,-0.6212110865931958,-0.2088537628382444,0.9166489809721708,-0.1832100450992584,0.0828515738248825,0.053710751235485,walking
1761225833735398700,-0.5744739949354901,-0.12243746214509,0.7294073304831982,-0.1780517697334289,0.0969181209802627,0.0913132578134536,walking
1761225833745411300,-0.5908921919034794,-0.0090793785125017,0.5461515347599983,-0.1561177223920822,0.1019060760736465,0.1301183849573135,walking
1761225833755424500,-0.6068403967395425,0.046927170869708,0.3967418945372104,-0.1125390902161598,0.0905724614858627,0.1697400957345962,walking
1761225833765437400,-0.6062369144210592,0.0255786778926849,0.2320470068991184,-0.0733066871762275,0.0806845054030418,0.2182103991508484,walking
1761225833775451400,-0.6375370752330869,0.0145978496730327,0.046143911537528,-0.019151572138071,0.0713906064629554,0.2650772333145141,walking
1761225833785464600,-0.712672030390054,-0.0086783964961767,-0.1962701755970716,0.0654954984784126,0.0796666294336319,0.3065333068370819,walking
1761225833795477500,-0.8331782322116196,-0.0261900877892971,-0.4381295514583587,0.1680796593427658,0.1068543121218681,0.3275406062602997,walking
1761225833805490400,-0.9555341535530985,-0.0664297437191009,-0.6380535733878612,0.2767169177532196,0.1536261439323425,0.3249662220478058,walking
1761225833815504400,-1.056326623992622,-0.1032972928673029,-0.714504360383749,0.3760786354541778,0.240334928035736,0.3099214732646942,walking
1761225833825517300,-1.0882298287317156,-0.1116734915465116,-0.6239706874996424,0.4452748000621795,0.3426143527030945,0.2906469702720642,walking
1761225833835530500,-1.0736062600955367,-0.1159989535301923,-0.31125089199543,0.4696544408798218,0.4389429986476898,0.2686258256435394,walking
1761225833845543400,-0.9264115194432436,-0.0860088889360427,0.139271108046174,0.4442358016967773,0.497239887714386,0.2587162256240845,walking
1761225833855557400,-0.7281880178213119,-0.1330780986249446,0.5249205306828022,0.3876854479312897,0.5373369455337524,0.2592387497425079,walking
1761225833865570600,-0.4392691499475389,-0.1170300501435995,0.7363929515868425,0.3255609273910522,0.5882356762886047,0.2808640897274017,walking
1761225833875583500,-0.1201759834865108,-0.1473807647436857,0.802907450979948,0.262215793132782,0.6618859171867371,0.3157291114330292,walking
1761225833885597400,0.1227759003192186,-0.2210936512082815,0.9397153837829828,0.1918094307184219,0.6899960041046143,0.3531247079372406,walking
1761225833895610400,0.3137626190880313,-0.3882417772173881,1.086298860669136,0.1138611137866973,0.6854729056358337,0.3879383504390716,walking
1761225833905623600,0.5857620990060269,-0.5066080444008112,1.2083417705386876,0.022926677018404,0.628902018070221,0.4413323104381561,walking
1761225833915636500,0.8750226929895579,-0.5763122797459364,1.334033850565553,-0.0810284838080406,0.5099751353263855,0.5104901194572449,walking
1761225833925650400,0.963628904942423,-0.6981278106004,1.3705769900649785,-0.1989216059446334,0.3453646302223205,0.5690315365791321,walking
1761225833935663400,0.8176446360584348,-0.7959066323071717,1.1498726304352282,-0.3143877387046814,0.1534649729728698,0.6091898679733276,walking
1761225833945676300,0.547023056897521,-0.813735718986392,0.5217682041317224,-0.3897647857666015,0.0035604257136583,0.6179905533790588,walking
1761225833955689500,0.1864784110315143,-0.6971832232266664,-0.4426315390527248,-0.4146581292152405,-0.0369427911937236,0.5978642106056213,walking
1761225833965703400,-0.1753008181307464,-0.4707277527242898,-1.3363818749964236,-0.3899146616458893,0.0001785217318683,0.5592039823532104,walking
1761225833975716400,-0.4514740766020491,-0.2346352698266506,-1.9676701920330524,-0.3396682739257812,0.1088288351893425,0.51598060131073,walking
1761225833985729500,-0.532984813868627,-0.0604179360836744,-2.356221181330085,-0.2829101979732513,0.2359259724617004,0.4815849363803863,walking
1761225833995742200,-0.4927807041762396,0.0285994870185852,-2.660835996311903,-0.2027655690908432,0.3906630873680115,0.4598436951637268,walking
1761225834005756400,-0.4619543348884209,0.1492915668010711,-2.870787491258979,-0.0992114096879959,0.5929762721061707,0.4526268243789673,walking
1761225834015769600,-0.4049314846031367,0.3267623493820428,-2.80112709505558,0.0228583104908466,0.7753255367279053,0.446334570646286,walking
1761225834025782300,-0.3181851482380181,0.3704313952386379,-2.452850248479843,0.152343600988388,0.8976269364356995,0.4295710325241089,walking
1761225834035795500,-0.1156732835060916,0.3036059302002191,-1.849515521773696,0.2713682353496551,0.9332603216171264,0.4087451100349426,walking
1761225834045809400,0.1556012796708382,0.2453407882362604,-1.1082920812904835,0.3647031188011169,0.8871070146560669,0.3964157402515411,walking
1761225834055822300,0.4731661588523537,0.2022270381748676,-0.3961410060346126,0.4269819259643554,0.785258948802948,0.4091081023216247,walking
1761225834065835500,0.6824627700872719,0.2025929488778114,0.167650814834237,0.4528570771217346,0.6791396141052246,0.4301286935806274,walking
1761225834075849500,0.8450244450889527,0.193141814443469,0.611734890782833,0.4442883729934692,0.5686490535736084,0.4544529318809509,walking
1761225834085862400,0.9151138803593812,0.1771323444068431,0.9441267704844474,0.3956673741340637,0.4729733467102051,0.4722374081611633,walking
1761225834095875600,0.9431379055775702,0.146343238389492,1.1490145523011683,0.3264515399932861,0.3951557874679565,0.4935959577560425,walking
1761225834105888300,0.9590147622104732,0.0889583863914012,1.308398474049568,0.2384108453989029,0.3237296044826507,0.5097777247428894,walking
1761225834115902500,0.9302337080799042,-0.0107902740836143,1.3733598987817763,0.1444547921419143,0.2345997244119644,0.5084719657897949,walking
1761225834125915600,0.8131986895002424,-0.1105938796162605,1.3920377112448217,0.0410529300570488,0.12216267734766,0.4824049770832062,walking
1761225834135928300,0.6098210930507629,-0.1885217534273862,1.2160352476507426,-0.0589069537818431,0.0154671259224414,0.4536508321762085,walking
1761225834145941500,0.402430023176223,-0.1390004744112491,0.6810568488121033,-0.1249573454260826,-0.0310468450188636,0.4194523692131042,walking
1761225834155955200,0.186947544646915,-0.0184381584882736,0.0096492873549461,-0.1536062955856323,-0.0009611160494387,0.3780463635921478,walking
1761225834165968400,-0.0584882831953465,0.1098234797656536,-0.5364917260110378,-0.1550045907497406,0.0716331303119659,0.3232817947864532,walking
1761225834175981600,-0.1908546168217435,0.2818523635536432,-0.8908446776300668,-0.1342974454164505,0.1536915153264999,0.2817335426807403,walking
1761225834185994500,-0.229740794049669,0.4252718234509229,-1.1237573614478111,-0.0926469787955284,0.2418459206819534,0.2483309507369995,walking
1761225834196008400,-0.2486660602014511,0.4656868359476327,-1.158543428146839,-0.0437494814395904,0.3215058743953705,0.2175871580839157,walking
1761225834206021600,-0.2415135763646103,0.4560299498081207,-1.0670382798820734,0.006742381490767,0.385651558637619,0.1847934871912002,walking
1761225834216034300,-0.2328592000648379,0.4495382497012615,-0.904113909047842,0.0600154548883438,0.4520191252231598,0.1555317491292953,walking
1761225834226048500,-0.1895944424265064,0.4425011906713247,-0.6987707846790552,0.1046286523342132,0.5265711545944214,0.1263176351785659,walking
1761225834236061400,-0.1021581601690035,0.4331552701771259,-0.3702981242477893,0.1422857493162155,0.5662639737129211,0.1046283096075058,walking
1761225834246074400,0.0251307057963218,0.4111065199762582,-0.0034071780949831,0.1772449612617492,0.5634814500808716,0.0926574617624282,walking
1761225834256087600,0.172510420227237,0.3776777131050824,0.2810650125682354,0.2081096619367599,0.5452350974082947,0.0796212926506996,walking
1761225834266101200,0.2911635780606418,0.3411567854374647,0.631511604398489,0.2227167338132858,0.4805101752281189,0.0768918320536613,walking
1761225834276114400,0.379832881844975,0.2861433387458324,0.9766144971132278,0.2176583260297775,0.3903453946113586,0.0738776624202728,walking
1761225834286127400,0.4731311971368268,0.2334749938756227,1.210853461098671,0.1912267655134201,0.3084864318370819,0.0777695178985595,walking
1761225834296140500,0.4899827805534005,0.1445189455717802,1.3786673575401305,0.1339869052171707,0.2246780693531036,0.0744874402880668,walking
1761225834306154500,0.4123288648454472,0.0225555306792259,1.4784791463792324,0.0492609292268753,0.171373575925827,0.0788427591323852,walking
1761225834316167400,0.3940051265170797,-0.038161680611968,1.5185446147859096,-0.0467878393828868,0.1364073306322097,0.085329420864582,walking
1761225834326180400,0.3165633191898465,-0.0997416462123394,1.474701381406188,-0.1487796902656555,0.1097490340471267,0.0840241163969039,walking
1761225834336193300,0.1232422391893342,-0.1874520783692598,1.4198574460625648,-0.2470127791166305,0.072586752474308,0.0758218467235565,walking
1761225834346207500,-0.0174972928750095,-0.2561842538118362,1.249301557436585,-0.3213701248168945,0.0341597646474838,0.0522372014820575,walking
1761225834356220400,-0.0845843725582584,-0.286778129518032,0.8749532810151577,-0.361611545085907,0.0118579203262925,0.0206529106944799,walking
1761225834366233300,-0.142314174669655,-0.2165951707452535,0.4982634099036455,-0.3715289235115051,0.0212791450321674,-0.0030909902416169,walking
1761225834376247300,-0.1691662426321767,-0.0710439595162868,0.1451391232967376,-0.3492654263973236,0.0564664267003536,-0.0137180685997009,walking
1761225834386260500,-0.165379728097096,-0.0096983871936798,-0.1115904894381761,-0.3073185980319977,0.0926159471273422,-0.0233043208718299,walking
1761225834396273400,-0.1185321344027761,-0.0241594587445259,-0.3256441590070724,-0.2382002621889114,0.1261017322540283,-0.0398044660687446,walking
1761225834406286600,-0.0907812179043889,0.0178045367598533,-0.3856622821182012,-0.1649448424577713,0.1357298344373703,-0.0524521470069885,walking
1761225834416300500,-0.0427106765526812,0.0268663796156644,-0.2794815427690744,-0.099974624812603,0.108275830745697,-0.0572767294943332,walking
1761225834426313500,0.1561397156627848,7.13116705417e-05,-0.1525882702589035,-0.0372406393289566,0.0618964172899723,-0.0458199568092823,walking
1761225834436326400,0.3248372996035963,0.0043991117417812,-0.0612923808306455,0.0216642245650291,-0.0007837410084903,-0.0268175024539232,walking
1761225834446339300,0.4028306033337488,0.0091933602809906,0.0647667789429426,0.0696590468287468,-0.0739008858799934,-0.0078252758830785,walking
1761225834456353500,0.3965486369874328,-0.0014566285490989,0.1835398733615875,0.0987913683056831,-0.1538665741682052,0.0181405451148748,walking
1761225834466366500,0.3330430370867252,-0.0866319892704486,0.259709505328536,0.1169561594724655,-0.2205362617969513,0.0298774298280477,walking
1761225834476379400,0.1930811154984869,-0.180717217156291,0.2792985874176025,0.1098662912845611,-0.2697461247444153,0.0261937454342842,walking
1761225834486392600,0.0403642823898931,-0.2939712558925151,0.225835292777419,0.0967129096388816,-0.2825532257556915,0.0111272688955068,walking
1761225834496406300,-0.1598697690365836,-0.3612187457352876,0.1316261462509632,0.0780156552791595,-0.2753981053829193,-0.0217111054807901,walking
1761225834506419500,-0.2907547415314242,-0.3734036890476941,0.0697509970963001,0.0642118006944656,-0.2615833878517151,-0.062362503260374,walking
1761225834516432600,-0.2760981291421689,-0.3702373339712619,-0.015231471401453,0.0684515535831451,-0.2599863111972809,-0.0958661437034607,walking
1761225834526445300,-0.1693495450435206,-0.3228460527211427,-0.2019867996782064,0.1000819951295852,-0.2555519938468933,-0.1139601022005081,walking
1761225834536459500,-0.0388810261287726,-0.1894815383702516,-0.2876899836659431,0.1605384051799774,-0.2774128019809723,-0.1209903135895729,walking
1761225834546472200,0.0954398573651909,-0.1109960306763648,-0.1987105544865131,0.2243947237730026,-0.3344670534133911,-0.1276269406080246,walking
1761225834556485400,0.2531099609330296,-0.2116226430296897,-0.0352688817799091,0.2696796357631683,-0.3730205595493316,-0.1375064700841903,walking
1761225834566498600,0.3647723830962553,-0.3967681980222463,0.1357528707921504,0.2728800475597381,-0.4118302762508392,-0.1432719081640243,walking
1761225834576512300,0.3822003416286781,-0.5579916101574898,0.4251157561063766,0.2157421857118606,-0.4642468690872192,-0.1492411196231842,walking
1761225834586525400,0.274672388921678,-0.7855699472099542,0.6703343792676926,0.1081753075122833,-0.5485367774963379,-0.1716456264257431,walking
1761225834596537900,0.097257665643189,-0.9522919567614794,0.7534346872806549,-0.0337365604937076,-0.6645928025245667,-0.2085570394992828,walking
1761225834606551800,-0.1819035043314099,-1.0269348175525663,0.6601531769931316,-0.1985892504453659,-0.7920882105827332,-0.2673673331737518,walking
1761225834616564700,-0.5973821749772876,-1.0307488228827717,0.3126847241908311,-0.3593344688415527,-0.9011449217796326,-0.3490131795406341,walking
1761225834626578000,-0.9849716988310218,-0.8507505676507949,-0.2803630017787218,-0.4966615438461303,-0.9203888177871704,-0.4401526153087616,walking
1761225834636590600,-1.2957348073095083,-0.5322714779675006,-1.092964163777232,-0.5849522948265076,-0.8313167691230774,-0.5103610157966614,walking
1761225834646604800,-1.5001500031784176,-0.0445253704249858,-1.8065104927837847,-0.610124945640564,-0.6657752990722656,-0.567112386226654,walking
1761225834656618000,-1.6227873718097805,0.3385369583278894,-2.269751689144969,-0.5783188343048096,-0.4572995901107788,-0.617012619972229,walking
1761225834666630700,-1.4451619831889866,0.6059849489539861,-2.5461650765150785,-0.4977936148643493,-0.304226279258728,-0.6440331935882568,walking
1761225834676643800,-1.0759005085125566,0.8994014935731888,-2.6756892820507288,-0.3447425365447998,-0.1975238025188446,-0.6056943535804749,walking
1761225834686657800,-0.7566128789253532,1.1429957304030656,-2.784828286683559,-0.1315148919820785,-0.0895291417837143,-0.5348081588745117,walking
1761225834696670700,-0.595777662390098,1.2088473819732666,-2.636765384894609,0.0963949784636497,-0.0171079318970441,-0.4717114865779876,walking
1761225834706684000,-0.4389928902894258,1.2265163096547127,-2.126091406229138,0.3270124793052673,-0.039230041205883,-0.407569020986557,walking
1761225834716696800,-0.2982817577690817,1.173329493868351,-1.5466022500127552,0.5340782999992371,-0.0794221982359886,-0.3498293161392212,walking
1761225834726710800,-0.2129297983718104,0.9738660751879216,-0.9957932448357344,0.7018011808395386,-0.127254456281662,-0.3074246048927307,walking
1761225834736724000,-0.162225227855239,0.7375234169214964,-0.4047942680895328,0.8132257461547852,-0.1815634965896606,-0.2751564383506775,walking
1761225834746736600,-0.1049381736758165,0.5099649536132812,0.2123573870450258,0.8633689880371094,-0.2501731812953949,-0.2542742788791656,walking
1761225834756749800,-0.0861184685240499,0.2890507506251335,0.7398352009952068,0.8465029001235962,-0.3204175233840942,-0.2527040839195251,walking
1761225834766763800,-0.0826909782934002,0.127982236790657,1.1296890895843503,0.7752577662467957,-0.382830411195755,-0.2483079582452774,walking
1761225834776776700,-0.1336228547598235,0.0209527716577053,1.3660662346422672,0.6541121602058411,-0.4078390896320343,-0.2502749562263489,walking
1761225834786790000,-0.2580382111154496,-0.0113911625862121,1.475985575997829,0.4931193888187408,-0.4028101563453674,-0.2568376362323761,walking
1761225834796802800,-0.3528630053222179,-0.025768647506833,1.5700415777891874,0.2989379167556762,-0.3927727043628692,-0.2742262184619903,walking
1761225834806816800,-0.4535775882199406,-0.0900128638803958,1.5392811133444309,0.0990570187568664,-0.374274879693985,-0.3023038804531097,walking
1761225834816830000,-0.4765712180554866,-0.0044388592302799,1.2155804896205662,-0.0759792402386665,-0.3173439502716064,-0.3210970163345337,walking
1761225834826843000,-0.5463018299508839,0.197160986956954,0.7847597998708487,-0.2248558700084686,-0.2339521944522857,-0.329833835363388,walking
1761225834836855800,-0.6150722185119987,0.3869482302755117,0.3380389456778764,-0.326788067817688,-0.1349568963050842,-0.3290703296661377,walking
1761225834846869800,-0.6054999419160186,0.6132067169010639,-0.0651134004235267,-0.3848210275173187,-0.0181514788419008,-0.3116386532783508,walking
1761225834856882700,-0.5221766388021409,0.8336772677749394,-0.4156856644600629,-0.3789122700691223,0.0802643075585365,-0.2817665040493011,walking
1761225834866896000,-0.3680583824969828,0.9877496391117572,-0.6342296311855316,-0.3186891376972198,0.13337042927742,-0.2301951497793197,walking
1761225834876909800,-0.1765674405330791,1.0963573133468627,-0.7107534834176301,-0.2014307081699371,0.1457661092281341,-0.1658832728862762,walking
1761225834886922800,-0.0321008096704259,1.131392970892787,-0.6842226193666457,-0.0582173466682434,0.1302635818719864,-0.0872699469327926,walking
1761225834896935700,0.0804646988123655,1.046072648742795,-0.570354248124361,0.0844060406088829,0.1009380370378494,-0.0165480859577655,walking
1761225834906948900,0.0877220312631689,0.8796826476246118,-0.3795563664585352,0.218381255865097,0.083991140127182,0.044635571539402,walking
1761225834916962800,-0.0094664233350194,0.6992740580260753,-0.1682820984750986,0.3263015747070312,0.0932386964559555,0.08970557898283,walking
1761225834926975700,-0.1457094705305993,0.4974000710725784,0.1905693336069583,0.3912289142608642,0.0932725220918655,0.1136434003710746,walking
1761225834936989000,-0.1956594232875853,0.2570674663871526,0.6518938826918602,0.416418969631195,0.0746437087655067,0.1130138263106346,walking
1761225834947001600,-0.2043260928133502,0.049900049200654,1.0024725764691829,0.3999485075473785,0.0776747092604637,0.109940119087696,walking
1761225834957015800,-0.1811044811745174,-0.0950450128287076,1.2923305518239736,0.3441813886165619,0.0833030343055725,0.0977891832590103,walking
1761225834967028700,-0.1099851000681519,-0.2461930211514234,1.5803104583472012,0.2564403414726257,0.0792742073535919,0.0965103283524513,walking
1761225834977041700,-0.0403455822560004,-0.3450450250476599,1.7865648523420097,0.1458872109651565,0.0669600144028663,0.0929307788610458,walking
1761225834987054800,-0.0919342055981047,-0.4391717539876699,1.9074656064391136,0.0226141773164272,0.0460286475718021,0.0807156711816787,walking
1761225834997068800,-0.1874799344905652,-0.5449328066200018,1.952913352406025,-0.1072026714682579,0.0255641192197799,0.0603771097958087,walking
1761225835007081700,-0.2267424890165217,-0.5325660769999027,1.8338813147902489,-0.2194735705852508,0.0094379149377346,0.0495051741600036,walking
1761225835017095000,-0.244882504808437,-0.4250912061870098,1.5378239002734422,-0.3048441112041473,-0.0037769568152725,0.0484878458082675,walking
1761225835027107800,-0.2731739122585393,-0.2826683561116457,1.1597042886197566,-0.3553526699542999,0.0118440799415111,0.0601638481020927,walking
1761225835037121800,-0.2893758178610354,-0.096523268687725,0.7198433833241462,-0.366368293762207,0.0454483777284622,0.08913504332304,walking
1761225835047135000,-0.299262293239031,0.0926350290775299,0.288831554916501,-0.3293308913707733,0.0745761170983314,0.132560983300209,walking
1761225835057147600,-0.3811895936835557,0.1902893476217985,-0.1277244626373052,-0.2475462853908538,0.1175664588809013,0.1688502877950668,walking
1761225835067160800,-0.5022669464565813,0.2231020684212446,-0.3630757717788219,-0.1418610513210296,0.1401883065700531,0.1938843578100204,walking
1761225835077174800,-0.633318653820455,0.2298392677217721,-0.3653139060944319,-0.033008337020874,0.1173021644353866,0.2110646665096283,walking
1761225835087187700,-0.7041991664033382,0.1875631375283002,-0.322796952882409,0.0816796869039535,0.072822093963623,0.2313985079526901,walking
1761225835097201000,-0.7228554976869374,0.0938350525170564,-0.2404816577672958,0.1796794831752777,0.0254140999168157,0.2469753473997116,walking
1761225835107213800,-0.7835806000236422,-0.0429278721004724,-0.1579869144320488,0.2570613324642181,0.0036598020233213,0.2633466124534607,walking
1761225835117227800,-0.8544923845276235,-0.1223889468282461,-0.0785311004012823,0.3173837959766388,0.0245949104428291,0.2703688442707062,walking
1761225835127241000,-1.0044242950588465,-0.2369651740789413,0.0730886170864105,0.3442302942276001,0.0530358254909515,0.260923832654953,walking
1761225835137254000,-1.1227395627073944,-0.376579980996251,0.385597400188446,0.3299442827701568,0.0714870020747184,0.234844833612442,walking
1761225835147266800,-1.1111242359764872,-0.4759995556473732,0.6431330686092376,0.2855601608753204,0.0759423077106475,0.2072328031063079,walking
1761225835157281000,-1.1091944369576872,-0.4684346733510494,0.7619108392030001,0.2313459366559982,0.0921391099691391,0.1951556354761123,walking
1761225835167293700,-1.203553001892194,-0.4774427401930093,0.7649673041641711,0.165790855884552,0.1290644258260727,0.1760038584470749,walking
1761225835177307000,-1.2588475305475293,-0.5130851314604282,0.7547545377075672,0.1140067502856254,0.1224720403552055,0.141319915652275,walking
1761225835187320800,-1.2737694976083933,-0.6197293966680765,0.5858522615075111,0.0701068788766861,0.1505968272686004,0.094309464097023,walking
1761225835197333800,-1.307720136396587,-0.59551499286592,0.3159901954770088,0.0471581555902957,0.2332685440778732,0.0502527877688407,walking
1761225835207347000,-1.2533207299500704,-0.4699994384497404,0.1983703627467155,0.0351231433451175,0.2982005774974823,0.0220302902162075,walking
1761225835217360000,-1.0761411123353988,-0.3861404210239648,0.0955453635662794,0.0501633435487747,0.3782280385494232,-0.0034598903730511,walking
1761225835227373800,-0.9055890231017024,-0.3286059314221143,0.0288595992594957,0.066793568432331,0.4696945250034332,-0.013953604735434,walking
1761225835237386800,-0.6889283859048039,-0.2384703179448843,0.0592991611868143,0.0886053889989852,0.5694461464881897,-0.0097279669716954,walking
1761225835247399700,-0.3933336569963023,-0.2024807206749916,0.1506219386219978,0.1127402037382125,0.6521336436271667,0.0200897641479969,walking
1761225835257412900,-0.1042451133777387,-0.1885661770910024,0.359352951863408,0.1358905285596847,0.6903212666511536,0.0725748166441917,walking
1761225835267426800,0.1884207042057067,-0.2997252893745899,0.6614777035951614,0.1437564492225647,0.681462824344635,0.1378829777240753,walking
1761225835277439700,0.3888714168904349,-0.5383218640476465,1.0181658201634882,0.1314190924167633,0.6313593983650208,0.1901736110448837,walking
1761225835287452700,0.4884916286801919,-0.7625707644164562,1.345099434459209,0.0868056565523147,0.5293297171592712,0.2271331697702407,walking
1761225835297465900,0.4495128229990601,-0.9172089529424904,1.6440192526698112,0.0200980063527822,0.3854058086872101,0.245810180902481,walking
1761225835307479800,0.3337928690733387,-0.9844535201758146,1.7461346422761677,-0.0840198919177055,0.2405328005552292,0.2359658479690551,walking
1761225835317492700,0.1875442684310488,-1.09639998344481,1.5706395436823368,-0.1939152479171753,0.1617879271507263,0.2080106437206268,walking
1761225835327506000,0.0843545093251392,-1.0265975484222174,1.114413779041171,-0.2990745306015014,0.1495600938796997,0.1810047030448913,walking
1761225835337518600,0.0029205659051076,-0.787215376329422,0.5650929665952921,-0.3794852197170257,0.179723858833313,0.1613175421953201,walking
1761225835347532800,-0.1045517499078065,-0.50996729170084,-0.0296715001642704,-0.4226630628108978,0.2463872730731964,0.1368390619754791,walking
1761225835357545700,-0.239604893199075,-0.2452384969055652,-0.5418944618374109,-0.4394942224025726,0.3159825801849365,0.111071653664112,walking
1761225835367558700,-0.2782579740571789,-0.0318517668128013,-0.9088543815732002,-0.4247055053710937,0.3586799800395965,0.0903527587652206,walking
1761225835377571800,-0.2444117637578398,0.128636901307106,-1.1592957078188657,-0.383294939994812,0.3817088603973388,0.076817512512207,walking
1761225835387585800,-0.1207029299700632,0.3119149088621139,-1.3278209674000738,-0.325909823179245,0.3555399477481842,0.0784496441483497,walking
1761225835397598700,0.0112091205501928,0.5240986929059028,-1.3934265352547168,-0.2463574856519699,0.2861219942569732,0.1097306013107299,walking
1761225835407612000,0.0812344958747737,0.7250362757921218,-1.622847869825363,-0.1384862065315246,0.2672699689865112,0.1434251517057418,walking
1761225835417624800,0.1165566787444986,0.913793007019162,-1.9114993919998409,-0.0103458277881145,0.321304976940155,0.1905295401811599,walking
1761225835427638800,0.028278511435911,1.0244394936054944,-2.0283517474889754,0.1232065334916114,0.4495880305767059,0.2312930673360824,walking
1761225835437652000,-0.086740235417895,1.031467784807086,-1.866570701470971,0.241023987531662,0.6056852340698242,0.2482113242149353,walking
1761225835447664600,-0.0673557725228369,0.9369880046457052,-1.286385964205861,0.3182382583618164,0.694916844367981,0.2550391256809234,walking
1761225835457677800,0.1151858835816383,0.6996791316956281,-0.4578285236626863,0.343818187713623,0.6876240372657776,0.2529205679893493,walking
1761225835467691800,0.3807634041607379,0.4629623794198036,0.2562783618360758,0.3363640904426574,0.6184145212173462,0.2523247599601745,walking
1761225835477704700,0.5732604544272646,0.332314138290286,0.7814186727494001,0.3041230738162994,0.5160481929779053,0.2579581439495086,walking
1761225835487718000,0.7147722906049341,0.2462047115892171,1.1762971115022898,0.2368755340576172,0.3878436386585235,0.2642975151538849,walking
1761225835497730800,0.7739478984773158,0.2539519647151231,1.4626631530880927,0.139958307147026,0.2458710372447967,0.2675462961196899,walking
1761225835507744800,0.8249448030039668,0.1361819098591804,1.586920816397667,0.0260601378977298,0.1011527478694915,0.2713620960712433,walking
1761225835517758000,0.8025203513585031,0.039696635094285,1.4622329449772833,-0.079275332391262,-0.0249977298080921,0.272128015756607,walking
1761225835527771000,0.6962514222692698,0.104964349296689,1.1042875218242407,-0.1684612184762954,-0.1093614995479583,0.2722845375537872,walking
1761225835537783800,0.4447239812873303,0.2510252636134624,0.6525210746794938,-0.2397111505270004,-0.1503821760416031,0.2575228810310364,walking
1761225835547798000,0.1609723417173139,0.3666173899084329,0.2013368113368749,-0.2865392565727234,-0.1493667811155319,0.2323236763477325,walking
1761225835557810700,-0.0952161681445315,0.4036246397882699,-0.2581856567621231,-0.3148057758808136,-0.0893971771001815,0.2017636448144912,walking
1761225835567824000,-0.3156358290813863,0.4435486538976431,-0.6985831531524658,-0.3198111951351166,0.0050416053272783,0.1583707332611084,walking
1761225835577836800,-0.5606972889196127,0.4753934064477682,-1.0123357988357544,-0.2977996468544006,0.1211232021450996,0.1018672361969947,walking
1761225835587850800,-0.6993523839592933,0.5574070882678032,-1.2041945877313611,-0.246150404214859,0.2425487190485,0.0384704396128654,walking
1761225835597863700,-0.7048830570142716,0.6006020868718623,-1.2040052026391028,-0.1822374612092971,0.3473027944564819,-0.0235468596220016,walking
1761225835607876900,-0.5599510371295735,0.643124885302782,-1.0268389559626578,-0.0999756902456283,0.4114455878734588,-0.0690145045518875,walking
1761225835617889500,-0.3125846248172223,0.6554372543871403,-0.6603770488768815,-0.0282839238643646,0.4298360347747803,-0.0947425067424774,walking
1761225835627903700,-0.0399294940020889,0.5981541091978549,-0.1501344473659992,0.0074360249564051,0.3831527531147003,-0.1072011888027191,walking
1761225835637917000,0.1584250866536051,0.4973574009746312,0.3191261554151773,0.0166588183492422,0.3110633790493011,-0.1107186898589134,walking
1761225835647929600,0.2920696600548922,0.4310375473707914,0.6328349619567394,0.0057212719693779,0.2450921386480331,-0.1037911996245384,walking
1761225835657942800,0.3494036586485803,0.4032791873514652,0.8897200575143098,-0.022776149213314,0.1799831688404083,-0.1019221916794776,walking
1761225835667956700,0.3628202261151745,0.3745505209952592,1.0465075330287217,-0.0592418648302555,0.1124699413776397,-0.0965926125645637,walking
1761225835677969700,0.3806480706853792,0.3762602475225925,1.0556137995481492,-0.1005584076046943,0.0574237331748008,-0.0862219929695129,walking
1761225835687982800,0.3530233835157007,0.324104528349638,1.0111398670494556,-0.1474347114562988,0.0032407578546553,-0.0775680616497993,walking
1761225835697995800,0.2992733078233897,0.336959918269515,0.932445100519061,-0.1900714039802551,-0.0386518314480781,-0.0635579675436019,walking
1761225835708009700,0.2094609349511563,0.3686509415626525,0.7635550992786884,-0.2147067040205001,-0.0565060637891292,-0.0456506609916687,walking
1761225835718023000,0.1055263305610045,0.3485375433385372,0.5963572889089584,-0.2263452559709549,-0.0725859701633453,-0.0442738085985183,walking
1761225835728035600,-0.0223759363286197,0.274088743814826,0.4779039279639721,-0.2297729104757309,-0.1000796556472778,-0.050283245742321,walking
1761225835738048800,-0.1508689721856266,0.1884106942683458,0.3488321423709392,-0.2223879694938659,-0.1301318258047104,-0.0734873712062835,walking
1761225835748062700,-0.2606666964555159,0.0972223568677902,0.1241857671171426,-0.2024478316307068,-0.1435587853193283,-0.1036345213651657,walking
1761225835758075600,-0.3420894631776958,0.0812298379659652,-0.1525607977300882,-0.1640751361846923,-0.0950964465737342,-0.132541537284851,walking
1761225835768088800,-0.3723121309513226,0.117603466117382,-0.2528273445993662,-0.1286985576152801,-0.0545502938330173,-0.1601661443710327,walking
1761225835778101800,-0.2511123573750257,0.1038619410127401,-0.0487409422934055,-0.0968021303415298,-0.0595003142952919,-0.1786396950483322,walking
1761225835788115700,-0.0434217565646395,0.0595545972526073,0.2414443653196096,-0.0866038054227829,-0.1202864646911621,-0.1808807998895645,walking
1761225835798128600,0.2045818576727062,-0.0146370126396417,0.3663666300177574,-0.080439917743206,-0.1977303922176361,-0.1648972928524017,walking
1761225835808141800,0.3786284379586577,-0.0413701212644577,0.3884755859732627,-0.0808341056108474,-0.2647093534469604,-0.1315610855817794,walking
1761225835818154800,0.401828732814826,-0.0465676899075508,0.4037526500821113,-0.0971417054533958,-0.3398134410381317,-0.1035845801234245,walking
1761225835828168700,0.3395242888648063,-0.0853676684230566,0.3971855466514825,-0.1247073486447334,-0.412400335073471,-0.0826657935976982,walking
1761225835838181600,0.297101078350842,-0.1169639991700649,0.2576099027007818,-0.1476568728685379,-0.4659171104431152,-0.0580834858119487,walking
1761225835848194800,0.230397559191659,-0.1646791055470705,0.0026589900761842,-0.1608617454767227,-0.5064005851745605,-0.0379211641848087,walking
1761225835858207700,0.0699390852806158,-0.2264952179908752,-0.2153448784232139,-0.1553825587034225,-0.5558291077613831,-0.028784392401576,walking
1761225835868221700,-0.1139132150310091,-0.266626737371087,-0.4964607443958521,-0.1223004385828971,-0.607212483882904,-0.0368858650326728,walking
1761225835878234600,-0.3037032348285429,-0.3169476423323154,-0.8740028484225273,-0.0610786229372024,-0.6155649423599243,-0.0641704797744751,walking
1761225835888247800,-0.4586677509658038,-0.3571890518277883,-1.205118132317066,0.009351959452033,-0.5788108110427856,-0.1013075336813926,walking
1761225835898260700,-0.4626707760620862,-0.3818266494780779,-1.3409668646991253,0.0799190700054168,-0.5327274799346924,-0.1372868418693542,walking
1761225835908274700,-0.3974755060413852,-0.4020744877368211,-1.1655272956848144,0.139957457780838,-0.548448920249939,-0.1591652631759643,walking
1761225835918288000,-0.317388664098084,-0.4809656536221504,-0.8181769163042306,0.1663762927055359,-0.6297194957733154,-0.1809137016534805,walking
1761225835928300500,-0.2512977969445288,-0.6318593949228525,-0.5567220286130905,0.1614821702241897,-0.7163342237472534,-0.1882844418287277,walking
1761225835938313700,-0.2625365454480052,-0.7730775453835725,-0.4321089759945869,0.1331876814365387,-0.7690520286560059,-0.2076703906059265,walking
1761225835948327700,-0.3878481382573023,-0.8606845171660185,-0.3731494220256805,0.0751070454716682,-0.7788376808166504,-0.2383818626403808,walking
1761225835958340600,-0.6073932083167135,-0.9119862498581408,-0.3030079643070698,-0.0202490370720624,-0.7590323090553284,-0.2885816395282745,walking
1761225835968353800,-0.8014351134050637,-0.95486443759799,-0.276917829760909,-0.1312004923820495,-0.7182204127311707,-0.3542040884494781,walking
1761225835978366700,-0.8757382208477705,-0.938646293246746,-0.4209866934776305,-0.2402063310146331,-0.6301877498626709,-0.4158669114112854,walking
1761225835988380700,-0.8683096782822162,-0.7789175035834311,-0.5953010578542948,-0.3194917440414428,-0.5307075381278992,-0.4605097472667694,walking
1761225835998393900,-0.7787433891255408,-0.493458055448532,-0.6862561710208654,-0.3550470769405365,-0.4641258418560028,-0.4883973002433777,walking
1761225836008406500,-0.5822266183562577,-0.1968424225270748,-0.7485989376872777,-0.3428063988685608,-0.4283463656902313,-0.4854094088077545,walking
1761225836018419700,-0.365142056658864,0.0594996521949768,-0.9289812238007784,-0.2686022222042084,-0.4135035276412964,-0.4572859108448028,walking
1761225836028434000,-0.1984120464639738,0.2240191832661628,-1.040850530180335,-0.1534229964017868,-0.4170873165130615,-0.4192945659160614,walking
1761225836038446600,-0.1010521077563986,0.3547212004095316,-0.9804694189757108,-0.0226026587188243,-0.4601503908634186,-0.386072963476181,walking
1761225836048459800,-0.0564461463758721,0.3666682433128356,-0.8662766380846499,0.1106122285127639,-0.508031964302063,-0.3586805462837219,walking
1761225836058472700,-0.0426451461689546,0.3441530446439981,-0.6823755301952361,0.2178209871053695,-0.5394396781921387,-0.334463357925415,walking
1761225836068486700,-0.040738435764797,0.2862742716491222,-0.4467500802874565,0.2954227924346924,-0.5620996356010437,-0.3198211789131164,walking
1761225836078499800,-0.0744304418831132,0.2458160045325756,-0.169331315267086,0.3368080556392669,-0.5772333145141602,-0.3128594160079956,walking
1761225836088512800,-0.1277894906975329,0.2587520584732294,0.0248527017056942,0.3445103466510772,-0.5710187554359436,-0.3078399002552032,walking
1761225836098525700,-0.1867009312083944,0.2850619732499122,0.1553764396727085,0.3399089276790619,-0.5324000120162964,-0.3064566552639007,walking
1761225836108540000,-0.280723176860623,0.2974240266948938,0.2725076121032238,0.3124003112316131,-0.4782507121562958,-0.3122568726539612,walking
1761225836118552600,-0.3533237547017633,0.2852560345172882,0.3854343185812234,0.2752390801906585,-0.4170776307582855,-0.3347571194171905,walking
1761225836128565800,-0.3916777430154383,0.266744226270914,0.5568716662168502,0.2230652421712875,-0.3622866570949554,-0.3600437641143799,walking
1761225836138578700,-0.3817656765384599,0.2760685194551944,0.6747586254507303,0.1651060730218887,-0.3188369274139404,-0.3823264539241791,walking
1761225836148592600,-0.2904189702384174,0.3092173403412103,0.7857014646351337,0.1056290194392204,-0.2895311415195465,-0.3959094882011413,walking
1761225836158605800,-0.2491637805905193,0.3390782255977392,0.8366542377591133,0.0388747565448284,-0.2853859364986419,-0.4105693697929382,walking
1761225836168618800,-0.1639333286810666,0.3901706994533538,0.7828226943284272,-0.0210276693105697,-0.279757559299469,-0.4102856516838074,walking
1761225836178631700,-0.0944787937806919,0.4720271448850631,0.6556903523653745,-0.0798566341400146,-0.2729702293872833,-0.4017118811607361,walking
1761225836188646000,-0.0346149479158222,0.578709404015541,0.4909218149691819,-0.137637510895729,-0.2655046582221985,-0.3639505207538605,walking
1761225836198658800,0.0017769100120291,0.6686760906666517,0.3073170596778393,-0.1856756061315536,-0.2512335777282715,-0.3172783553600311,walking
1761225836208671700,-0.0476454386742785,0.7529284913241863,0.1817348697662353,-0.2210364341735839,-0.2617559731006622,-0.2660982310771942,walking
1761225836218684700,-0.1233410964539274,0.848305512586236,0.0723749158591032,-0.2420671582221985,-0.2890768051147461,-0.2077148109674453,walking
1761225836228698600,-0.2395387874266132,0.9259721051126718,-0.0818453395158052,-0.2558697462081909,-0.3200233578681946,-0.1469988673925399,walking
1761225836238711800,-0.4231569867214187,0.9764642749875784,-0.2571837862432002,-0.2487862557172775,-0.3371821045875549,-0.0909816622734069,walking
1761225836248724700,-0.590030497040227,1.0206950463801625,-0.5371019668638706,-0.217153713107109,-0.312726229429245,-0.0455536544322967,walking
1761225836258738000,-0.7762752454463392,1.066443821120262,-0.8609078045278787,-0.1462811380624771,-0.2232592105865478,-0.0045178038999438,walking
1761225836268751600,-1.0029989384308458,1.060692125725746,-0.9554641570568084,-0.0553916916251182,-0.0896379351615905,0.0187871530652046,walking
1761225836278764800,-1.096318296510726,0.9560252980709076,-0.7153881574809551,0.0392810218036174,0.0257437825202941,0.0224537942558527,walking
1761225836288777700,-0.9845702784232796,0.7605728685975074,-0.1867255176603794,0.1145610511302948,0.0888464376330375,0.0232101548463106,walking
1761225836298790700,-0.7365816060267388,0.5024930102974177,0.512031823015213,0.1490564495325088,0.0908605828881263,0.0386234670877456,walking
1761225836308804900,-0.492369456494227,0.2515004799097776,1.173896480101347,0.1581147313117981,0.0555183254182338,0.0604845881462097,walking
1761225836318817500,-0.2937906020959839,0.018588380613923,1.730708525085449,0.1344392299652099,-0.0269786827266216,0.0759892463684082,walking
1761225836328830700,-0.184490342486836,-0.1847860740303993,2.0337626666218043,0.1028925776481628,-0.1141025424003601,0.0850527063012123,walking
1761225836338844000,-0.201281391355209,-0.3318324922531843,2.054982564783096,0.0592079497873783,-0.1495489478111267,0.0760845094919204,walking
1761225836348857600,-0.2283462161524221,-0.4333715432763099,2.0158172600865365,0.0096946759149432,-0.1667502224445343,0.0699499025940895,walking
1761225836358870800,-0.2506138332683593,-0.5094482362627982,1.9363678757965563,-0.0550451725721359,-0.1646971851587295,0.0628493800759315,walking
1761225836368883700,-0.3120593588341027,-0.6395312447249889,1.8037901279091837,-0.1126051396131515,-0.1364490389823913,0.0414258502423763,walking
1761225836378896600,-0.3528906605141237,-0.7207756957381963,1.6875082657843827,-0.1780347377061844,-0.1216344088315963,0.0196214858442544,walking
1761225836388910800,-0.3874112812099978,-0.8110247064620256,1.6329291188567876,-0.250284194946289,-0.1170430853962898,-0.0152352526783943,walking
1761225836398923500,-0.3883165594866499,-0.870502731347084,1.4911691166043282,-0.3167449831962585,-0.1076815426349639,-0.0476331412792205,walking
1761225836408936700,-0.3007712547635659,-0.8194961822092532,1.18815822968781,-0.3572372198104858,-0.0839971750974655,-0.055949006229639,walking
1761225836418949600,-0.2177006477691233,-0.6193716692715883,0.8036077082037926,-0.3761941492557525,-0.0384936109185218,-0.0397218354046344,walking
1761225836428963600,-0.1569336059868335,-0.4304635468751192,0.4731622863948345,-0.3700626492500305,0.0067815841175615,-0.0047635422088205,walking
1761225836438976800,-0.0705531437920406,-0.2848170585781335,0.2276099012345075,-0.3435873687267303,0.0312621593475341,0.0426545739173889,walking
1761225836448989700,-0.036333186543174,-0.2193289796233177,0.0097194299817085,-0.3012691140174866,0.0311751961708068,0.0926209986209869,walking
1761225836459002600,-0.0877914615038782,-0.2511871761769056,-0.1747743831038475,-0.2511777281761169,0.0184205193072557,0.1366550326347351,walking
1761225836469016800,-0.148215060143359,-0.2954033345222473,-0.3786065183877944,-0.2009656429290771,0.0260817129164934,0.1725448220968246,walking
1761225836479029800,-0.2763685618476942,-0.3352121978193521,-0.5607715962648392,-0.1403981745243072,0.0611739195883274,0.1968341916799545,walking
1761225836489042700,-0.4259842460365965,-0.3299731281220913,-0.6917384018242358,-0.0746346786618232,0.1093498170375824,0.2109845429658889,walking
1761225836499055600,-0.5626779048101976,-0.3297241217970847,-0.8117004137665033,0.0004084042739123,0.1599520146846771,0.2147348076105117,walking
1761225836509069600,-0.6694121498562395,-0.3570791617125272,-0.9168290137141942,0.0802155956625938,0.2338707447052002,0.2098082602024078,walking
1761225836519082800,-0.7328354052357375,-0.360280003580451,-0.9214455675989388,0.1579964160919189,0.3120736479759216,0.198246955871582,walking
1761225836529095700,-0.7675104858409613,-0.3991945483863353,-0.670367112493515,0.2161455303430557,0.3530272841453552,0.1789827793836593,walking
1761225836539108900,-0.7143928628332913,-0.473088636636734,-0.2970844194769859,0.2438908666372299,0.3445450961589813,0.1616450697183609,walking
1761225836549122800,-0.5790440427973866,-0.5814724389880895,0.0351823725402355,0.254678338766098,0.3266022205352783,0.1508466154336929,walking
1761225836559135700,-0.5158221917415038,-0.6020031858414411,0.2032815156638622,0.2380373030900955,0.3285202383995056,0.142560988664627,walking
1761225836569148700,-0.4992591429427266,-0.5464379504859447,0.3117015583723783,0.2110574841499328,0.3573745787143707,0.1378968358039856,walking
1761225836579161600,-0.5345487752497196,-0.4533171837180852,0.3730857091397047,0.1743716448545456,0.4138687551021576,0.1358067840337753,walking
1761225836589174800,-0.5305515953723341,-0.4269944094598293,0.3636117783516645,0.1422736346721649,0.4915496706962585,0.1342842131853103,walking
1761225836599189500,-0.5134686508852988,-0.4248199880301952,0.3259194688171148,0.1193771138787269,0.5801530480384827,0.1320974975824356,walking
1761225836609202700,-0.4283862291444092,-0.4374479989349842,0.2913303859949112,0.1070694848895073,0.6372101902961731,0.1276726573705673,walking
1761225836619215600,-0.3919296354172751,-0.3974029887944459,0.2390279518276452,0.1093898937106132,0.7126932144165039,0.1378858834505081,walking
1761225836629228500,-0.2465433506927452,-0.3945663040637969,0.2261018347591161,0.1252826154232025,0.770452082157135,0.1462095081806183,walking
1761225836639242800,-0.1449223204745911,-0.4420914408266544,0.3355436217308044,0.1289228945970535,0.8055363297462463,0.1630702465772628,walking
1761225836649255400,0.015613748717308,-0.495627216181159,0.4241261605471372,0.141069233417511,0.8257744908332825,0.1907282024621963,walking
1761225836659268600,0.2227472088352776,-0.5386135404706001,0.4940466689914464,0.1540782451629638,0.818942129611969,0.2212285995483398,walking
1761225836669281500,0.3749686733420938,-0.6125456226438284,0.6107739367961883,0.1525505632162094,0.7802177667617798,0.2499983757734298,walking
1761225836679295500,0.4926319798879325,-0.6790285578548908,0.7434364403575658,0.1355854272842407,0.7074663043022156,0.2805858254432678,walking
1761225836689308700,0.65950801095739,-0.6898480580329894,0.8408312311828136,0.103785216808319,0.5913769006729126,0.331121027469635,walking
1761225836699321600,0.6711700263742357,-0.7468535553246736,0.7616904744505881,0.0658799111843109,0.4940375685691833,0.3690463006496429,walking
1761225836709334500,0.603513152012974,-0.7815618806123733,0.5553717830479145,0.0105319339781999,0.4046196043491363,0.3861244916915893,walking
1761225836719348700,0.3384312694637105,-0.784320823931694,0.3467401385277509,-0.0550614558160305,0.333928644657135,0.3787741661071777,walking
1761225836729361400,0.0604864027765812,-0.7473685191094875,0.0374146616369485,-0.120377704501152,0.2812812924385071,0.3495817184448242,walking
1761225836739374600,-0.1736744773042388,-0.5901210248678922,-0.3260176684945821,-0.1818005740642547,0.2452037185430526,0.3046651184558868,walking
1761225836749387500,-0.3687046810438856,-0.3931780645757913,-0.6645850219607353,-0.2393534779548645,0.2335319072008133,0.2663393318653106,walking
1761225836759401500,-0.4092589558808133,-0.057656654676795,-1.1642086143016814,-0.2642931938171386,0.2861828804016113,0.2531518936157226,walking
1761225836769414700,-0.4167593946387991,0.2665729613572359,-1.6497662718892097,-0.255071222782135,0.3992500901222229,0.2537554800510406,walking
1761225836779427600,-0.461944653744623,0.5885071599304675,-1.9754893413513896,-0.2192951291799545,0.5335966944694519,0.2656986713409424,walking
1761225836789440500,-0.4646584062153473,0.891329246276617,-2.1165034936726093,-0.1503734141588211,0.6600498557090759,0.2823491394519806,walking
1761225836799454500,-0.3996722123680636,1.010946974825859,-2.1129799957215787,-0.0467082783579826,0.7787438035011292,0.2958306074142456,walking
1761225836809467600,-0.262080399178341,1.1311322741299867,-1.8004758887946604,0.064157098531723,0.8287603259086609,0.3365374803543091,walking
1761225836819480600,-0.0172079956388101,1.2256769362211226,-1.311809743797779,0.1724649369716644,0.8232177495956421,0.3952407538890838,walking
1761225836829493500,0.1655946677557192,1.0888497141957283,-0.8892921874910592,0.274533599615097,0.8010751605033875,0.4522283673286438,walking
1761225836839507500,0.2192730116523802,0.9497072009652852,-0.4112731087148189,0.3576034605503082,0.7717982530593872,0.4767038822174072,walking
1761225836849520400,0.1643538191154599,0.75333181142807,0.1794669248342514,0.3969834148883819,0.7062798142433167,0.4695641994476318,walking
1761225836859533600,0.2287887357555329,0.5189934787213802,0.7677952210664749,0.3947477042675018,0.6224626898765564,0.463578999042511,walking
1761225836869546800,0.4307075482314452,0.3105944739133119,1.191390051215887,0.3590455651283264,0.514015793800354,0.4480327367782593,walking
1761225836879559400,0.6023037762232124,0.1757727464914321,1.4497358669757845,0.2983422875404358,0.3986252844333648,0.4486985206604004,walking
1761225836889573600,0.6205243464380502,0.1969289317667484,1.6118781475216148,0.217442125082016,0.2844014763832092,0.4443899989128113,walking
1761225836899586600,0.6486377304401248,0.164637019971013,1.655181282675266,0.1211334392428398,0.145068883895874,0.4474646151065826,walking
1761225836909599500,0.6503934150010346,0.1640817241758108,1.5264280615121126,0.0413645692169666,0.0159569717943668,0.4571007490158081,walking
1761225836919612700,0.5694476546734571,0.1436474234342575,1.1124679056704043,-0.0294789783656597,-0.0574083216488361,0.4624787271022796,walking
1761225836929626400,0.3151301811141893,0.1504606105804443,0.6365180343836545,-0.0868952274322509,-0.0653759613633155,0.447275310754776,walking
1761225836939639600,-0.013803246962931,0.2405132219493389,0.2368096912562847,-0.130933791399002,-0.0200910326093435,0.4113442003726959,walking
1761225836949652700,-0.2556694544238038,0.309206818947196,-0.1242179158210754,-0.1607194542884826,0.0590218752622604,0.3706689178943634,walking
1761225836959665700,-0.3543517095100134,0.3624398119628429,-0.4230138153910636,-0.1608566045761108,0.143425703048706,0.3276610076427459,walking
1761225836969679600,-0.3790000112174078,0.4360428083121776,-0.7008055053770542,-0.1270089745521545,0.228793054819107,0.2898523211479187,walking
1761225836979692500,-0.4344784085396677,0.4712281034618615,-0.8197539563626051,-0.0774834975600242,0.2997082471847534,0.2499195635318756,walking
1761225836989705500,-0.4518883199587464,0.5067138428628445,-0.7320891169130802,-0.0221108458936214,0.3308490514755249,0.2126163244247436,walking
1761225836999718700,-0.3553809794925153,0.4397147748231887,-0.6030336979329586,0.0359045192599296,0.3521266579627991,0.1799284219741821,walking
1761225837009732600,-0.2398454604892991,0.3626403029710054,-0.4505991569310426,0.0956672132015228,0.3703298568725586,0.15181764960289,walking
1761225837019745500,-0.1341630260511301,0.2939601499766111,-0.1219488018453121,0.13497094810009,0.3696504831314087,0.1226158216595649,walking
1761225837029758500,-0.0624204167461954,0.2224807216525077,0.2917787142843008,0.1370685547590255,0.3460937440395355,0.0949455201625824,walking
1761225837039771600,0.0641884127994067,0.1219166531413793,0.7151981878668069,0.1027638465166091,0.3099985718727112,0.0748405158519744,walking
1761225837049785600,0.2288001339323818,0.0395218630492687,1.023205567896366,0.049543235450983,0.25180584192276,0.0709253996610641,walking
1761225837059798500,0.3185020321674645,0.0029553426742553,1.240190030220151,-0.0307324267923831,0.1840859204530716,0.0740796476602554,walking
1761225837069811500,0.3022293446173891,-0.0246323369532823,1.341263801819086,-0.1207374781370163,0.1086165457963943,0.0862368494272232,walking
1761225837079824400,0.3010376140821725,-0.0042845454514026,1.1789064172178507,-0.1881157159805297,0.0421653538942337,0.099268764257431,walking
1761225837089838600,0.2278612456470727,0.0169780228078365,0.8415718204170465,-0.2275640964508056,0.0212703794240951,0.1150627881288528,walking
1761225837099851500,0.1150947712320834,0.0957914472818374,0.4812316110819578,-0.2443944662809372,0.033683106303215,0.1285338550806045,walking
1761225837109864400,0.0045143538855947,0.1340045658200979,0.1842600043296814,-0.2318993061780929,0.0501292273402214,0.1354802399873733,walking
1761225837119877600,-0.1099561479683034,0.1019856257468461,-0.0583189179778099,-0.1978670358657837,0.0631845816969871,0.1291461735963821,walking
1761225837129891600,-0.1588071995726786,0.0878022020936012,-0.3015612726300954,-0.1421293169260025,0.0988360866904258,0.1270362138748169,walking
1761225837139904500,-0.2288171215998008,0.0611509265333414,-0.3992822266697883,-0.0783468782901763,0.1287396550178527,0.1182797402143478,walking
1761225837149917700,-0.2303489342769607,-0.0152636201053857,-0.258016145414114,-0.0248711183667182,0.1150982528924942,0.1022127866744995,walking
1761225837159930400,-0.144148742286209,-0.1021983917146921,-0.0352303033351898,0.0199528113007545,0.0712820589542388,0.0866234377026557,walking
1761225837169943600,-0.0596313888158649,-0.1600526147902011,0.1134755725324153,0.0416307561099529,0.0307941753417253,0.0841827392578125,walking
1761225837179957500,0.026055940015614,-0.2105056216984987,0.1474105753600597,0.0587799176573753,0.0140775144100189,0.0847505256533622,walking
1761225837189970400,0.0771330153726972,-0.2053887170761823,0.1735457180917262,0.068992294371128,0.0150693319737911,0.0929169282317161,walking
1761225837199983600,0.0720727545747533,-0.1725795034080743,0.2302700603544712,0.0727540105581283,0.0219504088163375,0.1046153977513313,walking
1761225837209996500,0.1359181260901503,-0.2294160738736391,0.3651180912613868,0.0623498819768428,-0.00552787957713,0.1234201565384864,walking
1761225837220010500,0.1879116769713349,-0.3300567147523164,0.4941466222345829,0.0560784041881561,-0.0482282042503356,0.1356137096881866,walking
1761225837230023700,0.1836576545223593,-0.4096750258684158,0.5103185893565416,0.0544011071324348,-0.0970826372504234,0.1419529765844345,walking
1761225837240036600,0.1321170898393728,-0.474742833584547,0.4951344642281532,0.0588134340941906,-0.1531134098768234,0.1377065628767013,walking
1761225837250049500,0.0809378327494487,-0.4852361705482005,0.4738134437799453,0.0619016177952289,-0.2160079330205917,0.1295964866876602,walking
1761225837260063700,0.0539411960839293,-0.4360299488306045,0.3713584469556808,0.0682426020503044,-0.2813301980495453,0.1301653385162353,walking
1761225837270076400,-0.0315200780398678,-0.3763403270214795,0.1742541586220264,0.083270214498043,-0.3258140981197357,0.1318502873182296,walking
1761225837280089600,-0.1283620755542535,-0.3555646654963493,-0.0530839399337768,0.1105372533202171,-0.3591872155666351,0.1296185553073883,walking
1761225837290102500,-0.264855398583319,-0.328332375177741,-0.2316097845256328,0.1437477469444275,-0.3825622797012329,0.1215811669826507,walking
1761225837300115700,-0.3593710720419883,-0.2804009957015514,-0.4331903414905071,0.2029351741075515,-0.3868827223777771,0.1086659058928489,walking
1761225837310129700,-0.4451849863952025,-0.2688549348145723,-0.5209224009573459,0.2553097009658813,-0.3706744611263275,0.0879417136311531,walking
1761225837320142600,-0.5177843951925635,-0.315898425540328,-0.4284691581875086,0.2876942753791809,-0.3520094454288482,0.0582722388207912,walking
1761225837330155500,-0.4383056386776268,-0.4429582867890596,-0.2478261753112077,0.2891328930854797,-0.3428924679756164,0.0207100939005613,walking
1761225837340168400,-0.2520819330595433,-0.5052075299531221,0.0074929861038923,0.2690044343471527,-0.3602514863014221,0.0039084767922759,walking
1761225837350182700,-0.1804340528333559,-0.4899661216795444,0.3590162672549486,0.2050364166498184,-0.4149097204208374,-0.007308579981327,walking
1761225837360195600,-0.1861825698900967,-0.6281383285731077,0.5988040975391864,0.1037622541189193,-0.5096386075019836,-0.0299582350999116,walking
1761225837370208500,-0.1156210601285099,-0.8194125955790281,0.5973620820373297,-0.0167186260223388,-0.6301233768463135,-0.0657884553074836,walking
1761225837380221700,-0.1106348326811566,-0.9103472504794596,0.3855161516457795,-0.1505691111087799,-0.7446997165679932,-0.0892631560564041,walking
1761225837390235600,-0.2131872985305264,-0.8439993398249149,-0.0156675247311592,-0.2817842364311218,-0.8558022379875183,-0.0972334071993827,walking
1761225837400248600,-0.3522222597332671,-0.6467898375511169,-0.6582008738815784,-0.3643550276756286,-0.9163848757743835,-0.0859048515558242,walking
1761225837410261500,-0.5230168524859473,-0.4152390897363424,-1.4936357989788054,-0.3934341669082641,-0.8863725066184998,-0.0785759836435318,walking
1761225837420274400,-0.7999496240876615,-0.1903454617232084,-2.3619699541151524,-0.3539847731590271,-0.7678520083427429,-0.0715596154332161,walking
1761225837430288600,-0.9835180659566074,0.0680295801311731,-2.9972786127090454,-0.2491275817155838,-0.5877121686935425,-0.0831127762794494,walking
1761225837440301600,-1.0469375219438224,0.2815864060938358,-3.174083624857664,-0.109214149415493,-0.3682022392749786,-0.0892838537693023,walking
1761225837450314500,-1.0914741444151848,0.5105938991665839,-3.013948007959127,0.0554935745894908,-0.1410079449415207,-0.086317628622055,walking
1761225837460327700,-1.0242857643485068,0.6273129836648702,-2.5582237630993125,0.2258274853229522,0.0357440896332263,-0.1041825413703918,walking
1761225837470340600,-0.7924245623450725,0.5191121366649866,-1.7885580719858407,0.3796253502368927,0.0882081389427185,-0.1326396763324737,walking
1761225837480354600,-0.4136526242624968,0.3190419842630624,-0.9240554578363896,0.4914285838603973,0.0250129289925098,-0.1537095457315445,walking
1761225837490367700,-0.0259967571742832,0.2668313200324773,-0.2126648455590009,0.5835378766059875,-0.0863874033093452,-0.149861067533493,walking
1761225837500380400,0.2331030918233096,0.345755219143629,0.2974573444426059,0.6352772116661072,-0.1808696985244751,-0.1273277997970581,walking
1761225837510393600,0.3022814035981893,0.3822796539425849,0.6871382145524024,0.6511015295982361,-0.243880033493042,-0.0976619720458984,walking
1761225837520407600,0.2663456919400021,0.3680073829621076,0.9724901106595992,0.6302993297576904,-0.2668820321559906,-0.0808733999729156,walking
1761225837530420500,0.2035986187890172,0.2774713719904422,1.109527760565281,0.5866242051124573,-0.2506162822246551,-0.079749047756195,walking
1761225837540433700,0.0156902480196207,0.1619704311102628,1.1350064852148294,0.5209565162658691,-0.1747971177101135,-0.1089724451303482,walking
1761225837550446600,-0.2401460326047614,0.0516863480955362,1.2258897021889683,0.4261612892150879,-0.1079416275024414,-0.161848098039627,walking
1761225837560460500,-0.3704659916279837,0.011270166555047,1.299058398774266,0.3235752582550049,-0.0697921067476272,-0.2296545803546905,walking
1761225837570473700,-0.3690478319257497,0.0262754279851913,1.2569564561039208,0.2249837964773178,-0.0286253150552511,-0.3040123283863067,walking
1761225837580486700,-0.3470716355044395,0.1495288826882839,1.1766238592386244,0.1227351799607276,0.0180191528052091,-0.3651560842990875,walking
1761225837590499600,-0.2616092014700174,0.2893821745365857,1.1985843466341497,0.0108828321099281,0.0400166362524032,-0.3976519405841827,walking
1761225837600512800,-0.0665675082219764,0.5046148247569799,1.1741431483387947,-0.1054301932454109,0.0487243719398975,-0.3939461410045624,walking
1761225837610526000,0.1992324229361489,0.7166530628502369,1.0204746816277503,-0.19955675303936,0.0578352659940719,-0.3475352823734283,walking
1761225837620539000,0.4327857427449896,0.8670517141103744,0.7187666940033436,-0.266404241323471,0.0819126367568969,-0.2765963971614837,walking
1761225837630551800,0.5817216645088047,0.9404723396301268,0.4631681311249733,-0.3084930777549743,0.0804786309599876,-0.1877683699131012,walking
1761225837640565000,0.6564134059429169,0.9058604604542256,0.0874807150542736,-0.3038948774337768,0.067277081310749,-0.0939345508813858,walking
1761225837650578700,0.5370767228247597,0.7985188606321811,-0.4755108953475951,-0.2611341774463653,0.1150071918964386,-0.0213753227144479,walking
1761225837660591900,0.2413601576348766,0.682148151180148,-0.8271604332268238,-0.1898730397224426,0.1493688970804214,0.0172263979911804,walking
1761225837670605000,-0.0132979095229879,0.5802192240566015,-0.9518430439502,-0.107106901705265,0.1633238941431045,0.0289986934512853,walking
1761225837680617700,-0.161906024104543,0.4529693931937217,-1.0374106188595291,-0.0215435307472944,0.1847495585680008,0.0298146866261959,walking
1761225837690632000,-0.2528754945900291,0.3379319781720638,-1.0338000271469354,0.0542240850627422,0.22518090903759,0.0271598417311906,walking
1761225837700644600,-0.2943082510282285,0.2763239555209875,-1.016482397121191,0.1112641990184784,0.2974034547805786,0.017147421836853,walking
1761225837710657800,-0.3334909269846975,0.3229267167419195,-0.8293319320470094,0.1520956754684448,0.3895013034343719,0.016476422548294,walking
1761225837720671000,-0.2634169450117275,0.3634229777812957,-0.591501665571332,0.1717902868986129,0.4856893420219421,0.0248169098049402,walking
1761225837730684700,-0.1574550908439792,0.3540998536407947,-0.3175648974478244,0.1672101467847824,0.576275110244751,0.0300962422043085,walking
1761225837740697900,-0.1158399453098885,0.3533259466588497,0.0047106619089841,0.1429255753755569,0.6691831946372986,0.0327628664672374,walking
1761225837750711000,-0.0791493784300983,0.3479512678831815,0.3330021205544471,0.099770039319992,0.7321100831031799,0.0548726059496402,walking
1761225837760723700,0.0941149654369801,0.4214654169052839,0.5498918903321027,0.0598180964589118,0.7794962525367737,0.0907483175396919,walking
1761225837770737000,0.2108761355113238,0.5159171400159597,0.6928145066231489,0.0324179381132125,0.792720377445221,0.1246593222022056,walking
1761225837780750800,0.2818060584601946,0.6254407600522041,0.8257382914692163,0.0008703963831067,0.7974413633346558,0.156918466091156,walking
1761225837790763800,0.2918782291360199,0.6784159789144992,0.9390811775326728,-0.0219955239444971,0.7979830503463745,0.1980084180831909,walking
1761225837800777000,0.3794992294438183,0.8185498412698506,1.0161866290450094,-0.0263884086161851,0.76812344789505,0.2480484098196029,walking
1761225837810790000,0.4413981978654861,0.7961790195077657,1.1599585556417702,-0.028579618781805,0.6624603271484375,0.300695538520813,walking
1761225837820803800,0.476296858093515,0.8100321882933378,1.2193489022433757,-0.0170697011053562,0.5290231704711914,0.3641733229160309,walking
1761225837830816800,0.4581830727213993,0.8370885375231504,1.0701841766923663,0.0075980182737112,0.4315842390060425,0.4373148679733276,walking
1761225837840830000,0.3493262460308149,0.9139631028890608,0.9624246437191962,0.0257242918014526,0.3308475017547607,0.5034207105636597,walking
1761225837850843000,0.2103527692243456,0.9545312601208686,0.8299047634989023,0.0345896482467651,0.2718793451786041,0.5634822249412537,walking
1761225837860856800,0.0579656110281124,0.9459171610325574,0.6463561223089694,0.0030322547536343,0.2734934687614441,0.618599534034729,walking
1761225837870869800,-0.1205127594265155,0.8714455651551485,0.5102659823864698,-0.0759082958102226,0.3361741900444031,0.6741794943809509,walking
1761225837880882700,-0.3262173192525282,0.7298860539108515,0.3385375428497791,-0.1724358946084976,0.4451864361763,0.7034018039703369,walking
1761225837890896000,-0.4301430462164804,0.6857078894883394,-0.0072866498768329,-0.2366504967212677,0.6163749694824219,0.7233489155769348,walking
