timestamp,acc_x,acc_y,acc_z,gyr_x,gyr_y,gyr_z,activity
1761225762457560600,0.169720862573944,0.0564747514158487,0.3369406290471554,-0.1033209189772605,-0.5291879177093506,0.0885056108236312,walking
1761225762467573500,0.042692054050602,-0.0158709383487701,0.1270879182994365,-0.165631428360939,-0.3952200412750244,0.0965169370174408,walking
1761225762477587500,-0.0846051048190332,-0.0287824423700571,-0.0754454093456268,-0.2027980536222458,-0.263546884059906,0.1108377426862716,walking
1761225762487601400,-0.1458419926027767,0.0100134444922208,-0.258791805961728,-0.1993607133626938,-0.1665092855691909,0.1154055967926979,walking
1761225762497614300,-0.1674630189108662,-0.0112771808177232,-0.4458288737893104,-0.1733258366584777,-0.1123542264103889,0.1051459014415741,walking
1761225762507628500,-0.1968097258338704,-0.0457481902182102,-0.5690069251686334,-0.134936898946762,-0.0914673209190368,0.0843452811241149,walking
1761225762517641500,-0.2202129593836143,-0.1183855564057826,-0.5830044708609581,-0.0953645482659339,-0.086112305521965,0.053264170885086,walking
1761225762527654100,-0.2563346038016491,-0.1428746854960918,-0.5343120438843966,-0.0672367736697197,-0.1049509719014167,0.0099704945459961,walking
1761225762537667300,-0.2491367647194303,-0.1499742883682251,-0.3996019601434469,-0.0471301712095737,-0.1312799751758575,-0.0284214597195386,walking
1761225762547681300,-0.1640201849806122,-0.135173609599471,-0.3017950813859701,-0.0397161990404129,-0.1480259299278259,-0.0460063144564628,walking
1761225762557694200,-0.0604842975844629,-0.0711135176211595,-0.3127764941275119,-0.0361431241035461,-0.1388068795204162,-0.047316625714302,walking
1761225762567708200,-0.0153860043760389,-0.0036322190225124,-0.3179156105816364,-0.0361055731773376,-0.1222196593880653,-0.042443573474884,walking
1761225762577721300,0.0177344489320181,0.101629651916027,-0.3271720992267131,-0.0279289558529853,-0.0777629166841507,-0.0343588776886463,walking
1761225762587735300,0.0500333567241206,0.1432242295861244,-0.333918066355586,-0.0149108925834298,-0.0361843146383762,-0.025700943544507,walking
1761225762597749200,0.0921900617890059,0.1370177761614322,-0.2117120748788118,-0.0115697793662548,-0.0158356502652168,-0.0165961682796478,walking
1761225762607762400,0.118257454780396,0.0999374610453844,-0.0105015202701091,-0.0220863372087478,-0.0195321179926395,-0.0142541844397783,walking
1761225762617776400,0.132164326514583,0.033387305817008,0.2043207955837249,-0.0478511787950992,-0.0393950566649436,-0.0200961325317621,walking
1761225762627789300,0.1362641813151538,-0.0272919115513563,0.2941267387151718,-0.0544784553349018,-0.0442792922258377,-0.0204988028854131,walking
1761225762637803300,0.1621768404025584,-0.0039776714593172,0.157376673579216,-0.0382165759801864,-0.0411639809608459,-0.021325584501028,walking
1761225762647816200,0.1152650314987637,0.024810031607747,0.0893833338052034,-0.0235974192619323,-0.0615962892770767,-0.0332240536808967,walking
1761225762657830100,0.037749610946048,0.0746615654915571,0.1109802485853433,-0.0006044856272637,-0.0842731520533561,-0.0506252646446228,walking
1761225762667843300,0.0194131044676527,0.0821773479491472,0.1134983688861131,0.0180570837110281,-0.0895688459277153,-0.061318926513195,walking
1761225762677857300,0.0277669269182719,0.0447001424700021,0.1378916363865137,0.0172598231583833,-0.0856622159481048,-0.0669040083885192,walking
1761225762687870200,0.0909662190824747,-0.012609306204319,0.2239922952592372,-0.011525752954185,-0.0831287503242492,-0.06892641633749,walking
1761225762697884400,0.1735603859378956,-0.0815565857023,0.3391729181438684,-0.0496372766792774,-0.0703522264957428,-0.0671442076563835,walking
1761225762707897000,0.2588119537006132,-0.0693295568138361,0.418082204207778,-0.0889156982302665,-0.0659108757972717,-0.0569618754088878,walking
1761225762717911300,0.2748188299213536,0.0103892920672893,0.4414163180440664,-0.1177216097712516,-0.070444144308567,-0.0411433279514312,walking
1761225762727925200,0.2637381763227284,0.0787152247965335,0.415305140709877,-0.139058843255043,-0.09955595433712,-0.0344081930816173,walking
1761225762737938200,0.2159990680156275,0.0993862569034099,0.3087631668329239,-0.1483310163021087,-0.112801469862461,-0.02565149217844,walking
1761225762747952000,0.1567281100099906,0.052833764564991,0.1479150177508592,-0.1417149156332016,-0.0951479077339172,-0.0111239496618509,walking
1761225762757965300,0.1404929049260914,0.0328062910586595,-0.0292377849221229,-0.1339330673217773,-0.0835854187607765,-0.0158886052668094,walking
1761225762767979300,0.0126281844347249,-0.0032049335211515,-0.0472737923502922,-0.1422234922647476,-0.0790543109178543,-0.0354045145213604,walking
1761225762777992200,-0.1051103975707199,-0.058216042125225,-0.0165641813099384,-0.1515027433633804,-0.0582524091005325,-0.0570324286818504,walking
1761225762788006400,-0.1210879472322762,-0.0415010541677474,-0.0984288100481033,-0.1559733897447586,-0.0564121678471565,-0.0588052980601787,walking
1761225762798019000,-0.0720985557362902,0.0553016159832477,-0.1412654967337846,-0.1462781429290771,-0.0618237107992172,-0.0488972701132297,walking
1761225762808033300,-0.0771612550864927,0.2242033076614141,-0.277505274260044,-0.1117942109704017,-0.0354448333382606,-0.0294213090091943,walking
1761225762818046200,-0.1062383421547245,0.374131418800354,-0.5276935025274754,-0.0519474744796752,0.0159083753824234,-0.0059393988922238,walking
1761225762828060400,-0.1434314699954819,0.4948749365091323,-0.6220943722337484,0.008145154453814,0.0558701753616333,0.0168972071260213,walking
1761225762838073300,-0.1725420757408253,0.5312123243033886,-0.5261176315128803,0.0515611581504344,0.0847824588418006,0.0402521975338459,walking
1761225762848087300,-0.1465021187456324,0.4390548496097326,-0.2719353651732206,0.0674407854676246,0.0877348408102989,0.0652899071574211,walking
1761225762858101200,-0.0668805288270581,0.3189940534681081,0.0239975461810827,0.0651549994945526,0.0857622623443603,0.0846346318721771,walking
1761225762868114200,0.0093428426211234,0.2458896542906761,0.2600269007146358,0.0481754839420318,0.0779088661074638,0.1022881940007209,walking
1761225762878128400,0.0713563682000152,0.2166542074561118,0.4943336692392825,0.0199748259037733,0.0589034967124462,0.1277395337820053,walking
1761225762888141300,0.169007636270672,0.2131418154209852,0.6573936491519212,-0.0111572593450546,0.0172913391143083,0.1475859433412552,walking
1761225762898155300,0.1614088517047464,0.1100795003533363,0.7640653868883848,-0.0424259677529335,-0.0393384099006652,0.1692240685224533,walking
1761225762908168200,0.1075353048963937,0.0041664720296859,0.733902303814888,-0.0788082107901573,-0.0862499922513961,0.1665808707475662,walking
1761225762918182400,-0.0863186946707312,-0.1272656129539013,0.6474883412092923,-0.0974501594901084,-0.1233443543314933,0.1523404419422149,walking
1761225762928195300,-0.3143681107005104,-0.1393997028619051,0.4188999503314495,-0.0723389536142349,-0.1607598960399627,0.132261261343956,walking
1761225762938209300,-0.5171651673156767,-0.0021954642176628,0.0462561397403478,-0.0313059389591217,-0.1689912527799606,0.1105292066931724,walking
1761225762948222500,-0.7824156478974967,0.2175175462871789,-0.2844762823164463,0.021650219336152,-0.093576394021511,0.1049357652664184,walking
1761225762958236200,-0.9537080341044812,0.2857575542986393,-0.7314175012618302,0.0953499153256416,0.0231886021792888,0.1060767471790313,walking
1761225762968249300,-1.0503582901727408,0.3260504017204046,-1.033105030620098,0.1729046404361724,0.1474170833826065,0.0965500921010971,walking
1761225762978263300,-1.0841310881759971,0.2925309939563274,-1.061343867632747,0.2296074032783508,0.22137251496315,0.0414260998368263,walking
1761225762988277200,-1.111842248052731,0.1361860015124082,-0.9375000458210706,0.2818836867809295,0.2755052447319031,-0.0333802327513694,walking
1761225762998290200,-1.0061239385835823,0.0689139617502689,-0.8042623727202415,0.3156145513057709,0.3078501224517822,-0.1015476435422897,walking
1761225763008304400,-0.8593423087768256,0.0247971721261739,-0.5345546204686165,0.3000966012477875,0.2930338978767395,-0.1559866517782211,walking
1761225763018317300,-0.7790726210799068,0.0012795184165239,-0.0845008224606514,0.2575992047786712,0.2658995389938354,-0.1853819787502288,walking
1761225763028331300,-0.6955003847062587,0.0125379945337772,0.2594049694240093,0.2013849318027496,0.2487634122371673,-0.1819470226764679,walking
1761225763038344400,-0.652368295270577,0.0592395399540662,0.5758809025913476,0.1230759099125862,0.2254665940999984,-0.1761664152145385,walking
1761225763048358100,-0.6226185422383248,0.0128448685258626,0.9184721047461032,0.0196810793131589,0.1797299981117248,-0.1828908920288086,walking
1761225763058371300,-0.6255109757442027,-0.0727443336933851,1.1493529904752968,-0.0943714529275894,0.1315115988254547,-0.201946347951889,walking
1761225763068385300,-0.5988211948044597,-0.1614654041975736,1.0582090767383574,-0.1720604002475738,0.151066392660141,-0.212536409497261,walking
1761225763078398200,-0.56047867773287,-0.1771206539690494,0.6945844389051199,-0.2352612763643264,0.2287087440490722,-0.2172714918851852,walking
1761225763088412200,-0.5565434206431731,-0.0705067838996648,0.5144529126822948,-0.2795150279998779,0.2947931885719299,-0.2194747328758239,walking
1761225763098425300,-0.5317817216891795,0.0417506450146436,0.5383692103207111,-0.3163846433162689,0.3199115991592407,-0.1977595835924148,walking
1761225763108439300,-0.3639054275359958,0.0684574501544237,0.6539116522550582,-0.3603363633155823,0.2949210405349731,-0.1603368371725082,walking
1761225763118453200,-0.165437230437994,-0.0154436528474092,0.8141285176962614,-0.3963703513145447,0.2162185162305832,-0.1009105071425437,walking
1761225763128466400,0.0171537081683054,-0.0705552992165088,0.848357535034418,-0.4029848575592041,0.1344032734632492,-0.0348188355565071,walking
1761225763138480000,0.1185133840365335,-0.1014566334366798,0.7273375384718179,-0.3862927258014679,0.0447124503552913,0.0173109788447618,walking
1761225763148493300,0.1089494368774816,-0.076567691373825,0.6812649386048316,-0.3484832942485809,-0.0773189142346382,0.0573534667491912,walking
1761225763158507300,0.120426633779332,-0.0340729499936103,0.635866292476654,-0.3071960210800171,-0.1936262100934982,0.0992743670940399,walking
1761225763168520200,0.1716382405025884,-0.0504220272481441,0.4665735556542873,-0.2639673352241516,-0.2480340451002121,0.1573414057493209,walking
1761225763178534100,0.1984733481971546,-0.0281412218570709,0.2298907056480646,-0.2310234904289245,-0.2570769488811493,0.2178488671779632,walking
1761225763188547300,0.0628301117919385,-0.0019219079732894,0.2259931136876344,-0.229995772242546,-0.2684811353683471,0.2667543590068817,walking
1761225763198561300,-0.1383625601002015,-0.0439443556666374,0.3707920452445745,-0.2397676259279251,-0.2629810273647308,0.3097730576992035,walking
1761225763208574200,-0.273153709720727,-0.182850722053647,0.354352951619029,-0.2344881743192672,-0.2298305332660675,0.3360677659511566,walking
1761225763218588400,-0.4290395054213702,-0.2849088285148143,0.1096504612863063,-0.2131674289703369,-0.1499756872653961,0.3399313688278198,walking
1761225763228601300,-0.6518791965793818,-0.3324117534458637,-0.1067851349830627,-0.1762754619121551,-0.0785150974988937,0.3168209791183471,walking
1761225763238615300,-0.8856099187817424,-0.4013502651154995,-0.1194260053694248,-0.1382767707109451,-0.0163158737123012,0.2697664797306061,walking
1761225763248628500,-0.99850542640388,-0.4537181657344102,-0.0178694186896085,-0.1152510792016983,0.0166122484952211,0.2178148776292801,walking
1761225763258642200,-0.9630935559567064,-0.502404747492075,0.192720374161005,-0.0979001522064209,0.0246607437729835,0.1808632314205169,walking
1761225763268656000,-0.8284871517859399,-0.5426911651730537,0.3559142095863818,-0.0932910144329071,0.0425736978650093,0.1528105586767196,walking
1761225763278669300,-0.7117094689682125,-0.5964473052799701,0.4226075726777314,-0.1026015132665634,0.0959495306015014,0.1264694035053253,walking
1761225763288683300,-0.7080678975954652,-0.5932189908832312,0.4382330118328332,-0.1190734282135963,0.155249074101448,0.0994146168231964,walking
1761225763298696200,-0.7526821153476834,-0.5375859509885311,0.5076385564923286,-0.1301243901252746,0.2087973654270172,0.089030422270298,walking
1761225763308710400,-0.687289167330414,-0.4969441439986228,0.6015858372122049,-0.1353396624326706,0.2539073228836059,0.0944283828139305,walking
1761225763318723300,-0.5025787158194929,-0.5040852479249238,0.6667892540067434,-0.1279309242963791,0.2632178962230682,0.1041878163814544,walking
1761225763328737300,-0.3507726089142263,-0.5743710825502872,0.7774561988592147,-0.1226610615849495,0.2363423407077789,0.1148511171340942,walking
1761225763338750500,-0.3023278182894922,-0.6258727217286825,0.895788563773036,-0.1152624487876892,0.1684098243713379,0.1157497987151146,walking
1761225763348764200,-0.3215412537328899,-0.7136790154755115,1.0457897401481866,-0.1210550889372825,0.0731600150465965,0.1038878113031387,walking
1761225763358777300,-0.3619123905552551,-0.8075526464372873,1.0903817460685967,-0.1260106116533279,-0.0205171927809715,0.0822339504957199,walking
1761225763368791300,-0.4872157269928604,-0.9276350698888302,0.9643307696014642,-0.1362014561891555,-0.061358630657196,0.054700069129467,walking
1761225763378804200,-0.6346669266242534,-0.95971363119483,0.7460942613899707,-0.1498241573572158,-0.0484858974814415,0.0289267189800739,walking
1761225763388818200,-0.7217956133704632,-0.8906751662820577,0.5699100114881992,-0.1716966927051544,-0.0137622710317373,0.021016864106059,walking
1761225763398832400,-0.6999225850626826,-0.7910305507034063,0.4195668898075819,-0.1830979436635971,0.0315175205469131,0.0278471652418375,walking
1761225763408845300,-0.6499489591691643,-0.7227963879108429,0.2686047594457864,-0.1925401836633682,0.0855677053332328,0.0371530503034591,walking
1761225763418859300,-0.6880226692367345,-0.6812731219112873,0.149064187785983,-0.1905848979949951,0.1269948184490203,0.0394104607403278,walking
1761225763428872400,-0.7529920580796897,-0.6606073505014181,0.0897188493698835,-0.1810454577207565,0.1509084105491638,0.0350838899612426,walking
1761225763438886100,-0.819158547752723,-0.6564011309832334,0.0229980137497186,-0.1681951731443405,0.16190005838871,0.0372210182249546,walking
1761225763448899300,-0.8582137431383132,-0.6488643057376146,-0.0281914907395839,-0.1347986012697219,0.1695121675729751,0.0414024479687213,walking
1761225763458913300,-0.8385201777614653,-0.6366372768491506,-0.1715706186264753,-0.085980013012886,0.1777158081531524,0.0471299178898334,walking
1761225763468926200,-0.8211423419810832,-0.6446586707413197,-0.2108919906675815,-0.0345895290374755,0.1747178882360458,0.043440643697977,walking
1761225763478940200,-0.8880837615493684,-0.6516723488956689,-0.1345838270127773,0.0090373996645212,0.1591745764017105,0.0269843600690364,walking
1761225763488953300,-0.9590425270002336,-0.6522387506067753,0.0119084644585847,0.038914605975151,0.1300790160894394,0.0081981550902128,walking
1761225763498967300,-0.9711834119752047,-0.6840835031569004,0.0921744258284568,0.0640022009611129,0.1330157816410064,-0.0055464138276875,walking
1761225763508980200,-0.9686466600392012,-0.6715086837440729,0.0180517895191907,0.0909155756235122,0.1805428266525268,-0.010855158790946,walking
1761225763518994400,-0.9522625845365226,-0.620575199842453,-0.0333785379886627,0.1113880947232246,0.2245407849550247,-0.0158960148692131,walking
1761225763529007000,-0.9421569317162036,-0.5648708482772111,0.1147889932185411,0.1186340227723121,0.239986315369606,-0.0143572408705949,walking
1761225763539021300,-0.8374565671179444,-0.554525979873538,0.3526952475398778,0.1112239584326744,0.223409041762352,-0.008849305100739,walking
1761225763549034200,-0.7096947681449354,-0.5551695384740829,0.5464671765804291,0.1072055101394653,0.1869921833276748,0.0105592804029583,walking
1761225763559048200,-0.6246420839551836,-0.5949789862930774,0.5525011960476637,0.1222745701670646,0.1948524713516235,0.0339833013713359,walking
1761225763569062100,-0.5902495831510052,-0.5693593918681145,0.3496820371985435,0.1510697156190872,0.2313241958618164,0.0511276684701442,walking
1761225763579075000,-0.6492679181024432,-0.4917717097967863,0.2542190912187099,0.1753281950950622,0.2500141561031341,0.0635569393634796,walking
1761225763589089300,-0.6561032440152019,-0.4895668932288884,0.3132359283328056,0.200337141752243,0.2522789239883423,0.0808744132518768,walking
1761225763599102200,-0.5446063511446118,-0.5498568190187215,0.3342646878361702,0.2273323684930801,0.2501590847969055,0.1067553758621215,walking
1761225763609116400,-0.4019252519918605,-0.6427636507749557,0.3245785756021738,0.252432644367218,0.2340568155050277,0.1272404044866562,walking
1761225763619129000,-0.2970881458040326,-0.7103548394888639,0.3230558960795402,0.2684249579906463,0.2180033177137375,0.1433241516351699,walking
1761225763629143300,-0.2224024687845259,-0.82517188975811,0.3489882097154855,0.275811493396759,0.2085759937763214,0.1607095301151275,walking
1761225763639156200,-0.1199056421125307,-0.9466635954856872,0.3041916211336851,0.2723370194435119,0.2210818231105804,0.1767793148756027,walking
1761225763649170200,-0.0688882062545046,-1.0839736325919629,0.2569423787027597,0.2513835430145263,0.2242882698774337,0.1748599708080291,walking
1761225763659183400,-0.1299486414927989,-1.1656763487666844,0.3333621860384941,0.2145958840847015,0.2036632597446441,0.1540367007255554,walking
1761225763669197000,-0.2394157455688342,-1.194295709529519,0.4370540311813354,0.1604556739330291,0.1828455924987793,0.1125228106975555,walking
1761225763679210200,-0.2834532959442585,-1.2081535544902084,0.4803460604190826,0.0955796539783477,0.1385754197835922,0.0722445547580719,walking
1761225763689224200,-0.1480290725845843,-1.2235785026371475,0.4983680393218994,0.0203094091266393,0.0429434292018413,0.0459897890686988,walking
1761225763699237000,-0.0202975956846028,-1.1811585800588131,0.5302607226669788,-0.0813478007912635,-0.0948690921068191,0.0167670305818319,walking
1761225763709251000,-0.0594336742866784,-1.0725789628744125,0.4995704008489847,-0.1969598829746246,-0.2341193854808807,-0.0224216505885124,walking
1761225763719264300,-0.2248150828842073,-0.8674661401301622,0.2090454860180616,-0.2973483800888061,-0.2617618143558502,-0.0770849585533142,walking
1761225763729278200,-0.5421300972241908,-0.5844459018409252,-0.4091384347736835,-0.3844824731349945,-0.1990803182125091,-0.1299340575933456,walking
1761225763739292200,-0.7828273705035448,-0.2477992873042821,-0.9414368007481098,-0.4414583146572113,-0.1041448786854744,-0.167483776807785,walking
1761225763749305300,-0.8343995176348835,0.1070014080822467,-1.3839736472547053,-0.4347058534622192,0.0166766103357076,-0.180000364780426,walking
1761225763759319300,-0.7611278721317648,0.4530038799852132,-1.864884940341115,-0.3596853911876678,0.1869359314441681,-0.1680028736591339,walking
1761225763769332200,-0.6628830403484404,0.7323159114062786,-2.309617835587263,-0.2218196988105774,0.4050139486789703,-0.1534718722105026,walking
1761225763779346200,-0.7103549856193363,1.0762935994833709,-2.5403069981366397,-0.0584012083709239,0.6187661290168762,-0.1323806047439575,walking
1761225763789359000,-0.6959364380359649,1.4020453105181454,-2.347358075916767,0.1182100549340248,0.7578459978103638,-0.0919239968061447,walking
1761225763799373000,-0.4522633638162165,1.560849386551976,-1.8516952039003367,0.2963066101074219,0.787414014339447,-0.0383267737925052,walking
1761225763809386200,-0.1032797572106122,1.537272111609578,-1.2048293785035609,0.4441080689430237,0.7026565074920654,0.0149702690541744,walking
1761225763819400200,0.208386802913621,1.4662690686255693,-0.5215139371097087,0.5648743510246277,0.5423731207847595,0.0719982758164405,walking
1761225763829413000,0.326630685826391,1.401016551992297,0.0892120688915252,0.6277667284011841,0.3593426048755646,0.1071653142571449,walking
1761225763839427300,0.309500395066291,1.2506436196953057,0.5662906519472599,0.6559246778488159,0.1884363889694214,0.1202164515852928,walking
1761225763849440000,0.2841510689500719,1.0740443592518567,0.8373761222928762,0.6440903544425964,0.0359488390386104,0.117395631968975,walking
1761225763859454200,0.1749139377050101,0.989933997413516,1.020975032365322,0.5936295986175537,-0.0665953755378723,0.0905352607369422,walking
1761225763869467100,0.0355856926441192,0.9233230519086122,1.06141225669384,0.5062035918235779,-0.1091383099555969,0.0510182119905948,walking
1761225763879481300,-0.1086362427424639,0.8391811258882284,1.0091203439205885,0.3878410160541534,-0.1112475842237472,0.0126368850469589,walking
1761225763889495000,-0.2056856541961431,0.8126397404432296,0.9625567456662656,0.2518373727798462,-0.1039414629340171,-0.0222278889268636,walking
1761225763899508200,-0.2140451940014958,0.8246674473673105,0.8949573736459017,0.1227407902479171,-0.1045659705996513,-0.0536489076912403,walking
1761225763909522200,-0.2195417455911636,0.833995247682929,0.7781558715611696,0.0070006139576435,-0.1041933968663215,-0.09037896245718,walking
1761225763919535000,-0.2534970605544746,0.8737988502830266,0.5435568420916795,-0.0860270634293556,-0.0922752618789672,-0.1248582154512405,walking
1761225763929549300,-0.2562796770103275,0.9133990392655134,0.2691945420324802,-0.1570285260677337,-0.0778968557715416,-0.1473158597946167,walking
1761225763939562200,-0.2291680904619395,0.9871914207071064,0.0320744696527719,-0.2122015058994293,-0.06876802444458,-0.1523946523666381,walking
1761225763949576200,-0.1382565972413867,1.0220201575040817,-0.1332645611077547,-0.2446779608726501,-0.0618121176958084,-0.1456020027399063,walking
1761225763959589000,-0.0529428509626537,0.9684849666714668,-0.3043915276199579,-0.254446804523468,-0.069540686905384,-0.1448943465948104,walking
1761225763969603300,-0.0238569686666131,0.8990992957562207,-0.3612222528666257,-0.2569442987442016,-0.1061626151204109,-0.1538420468568802,walking
1761225763979616300,-0.0916697642419487,0.8328554299980402,-0.3779933549255132,-0.2614350318908691,-0.1233934760093689,-0.1810844391584396,walking
1761225763989630200,-0.1814231004033237,0.7130202593058347,-0.4673918862998485,-0.2615833580493927,-0.1049814522266388,-0.2153510600328445,walking
1761225763999643100,-0.27606976156421,0.6299737273067235,-0.6209709211617708,-0.2586520314216614,-0.0616034008562564,-0.2384389191865921,walking
1761225764009657000,-0.2615684310682117,0.5796972460091113,-0.6839046394586563,-0.253824770450592,-0.0064626499079167,-0.2573622763156891,walking
1761225764019670300,-0.242141480738297,0.5103928236365318,-0.7201385668784379,-0.2426164001226425,0.0775789991021156,-0.2650441229343414,walking
1761225764029684200,-0.1973318865444511,0.4753782088786363,-0.6864905642986298,-0.2343182563781738,0.1388031989336013,-0.2694623172283172,walking
1761225764039697200,-0.1245395489908754,0.4564829542726278,-0.4110720331847667,-0.2193336337804794,0.1056010872125625,-0.2570332586765289,walking
1761225764049711000,0.0988399481322616,0.4916898767322301,-0.100797877267003,-0.1875176429748535,0.0314496234059333,-0.2117952108383178,walking
1761225764059725300,0.3856329098932445,0.57757367798388,0.0639110388964414,-0.1387284398078918,-0.0593854561448097,-0.1419934630393982,walking
1761225764069738200,0.619660276954621,0.6217208627462387,0.1307768359452486,-0.081028401851654,-0.1480167955160141,-0.0576135963201522,walking
1761225764079752200,0.6980944197874516,0.6294985110104083,0.1137514668643474,-0.0182393174618482,-0.2027111947536468,0.0266000851988792,walking
1761225764089765400,0.6833574539046734,0.5720592984765768,0.0138426473915576,0.04471967369318,-0.2226617336273193,0.0981160774827003,walking
1761225764099779000,0.5323852405402809,0.492333435332775,-0.0209136086910963,0.1021604165434837,-0.2236343920230865,0.139278769493103,walking
1761225764109792300,0.2984408755872398,0.3334124549210071,0.0848246475875377,0.1387264281511306,-0.2436081022024154,0.1570756137371063,walking
1761225764119806200,0.092085067044571,0.1835655923247337,0.2769762819498777,0.1592577993869781,-0.2741298675537109,0.1636735200881958,walking
1761225764129819100,-0.0045897389430552,0.0215080674529075,0.4589180724650621,0.1691021770238876,-0.3416601717472076,0.1580811440944671,walking
1761225764139833000,-0.0864384394597262,-0.1531570100575685,0.5587076494723558,0.181809976696968,-0.406963974237442,0.1312127113342285,walking
1761225764149846300,-0.2355511425625532,-0.2859714893102645,0.5176198522806167,0.1895169019699096,-0.4550113976001739,0.074374720454216,walking
1761225764159860200,-0.4239238429080694,-0.4131213669300079,0.4346504771709442,0.1924808174371719,-0.5009644031524658,0.0006229486316442,walking
1761225764169873200,-0.574419890128076,-0.445639488697052,0.4406336432337761,0.1527128964662552,-0.5492539405822754,-0.0914795473217964,walking
1761225764179887400,-0.703649058239907,-0.5187450569182634,0.4660685287415981,0.101184457540512,-0.5691072344779968,-0.1757449507713318,walking
1761225764189900000,-0.6774366124883294,-0.5447288084805011,0.3262053000211715,0.0553802214562892,-0.5437853932380676,-0.2327523082494735,walking
1761225764199914200,-0.5503358712399378,-0.4837631753861904,0.1017220063745975,0.0125722140073776,-0.4860758781433105,-0.2682431936264038,walking
1761225764209927400,-0.4804997896760702,-0.3649690381795167,-0.1932750854343175,-0.0142559371888637,-0.3716241121292114,-0.2818186581134796,walking
1761225764219941000,-0.4256354325989261,-0.2347860764741897,-0.5022545253664255,-0.0146839087828993,-0.2417640537023544,-0.283738911151886,walking
1761225764229955000,-0.3610204466842114,-0.13004676810503,-0.666946490395069,-0.0128396693617105,-0.1362480074167251,-0.2882681488990783,walking
1761225764239968300,-0.2668518513638526,-0.0926063875049352,-0.5509574737370014,-0.0142534524202346,-0.0878772288560867,-0.2938946783542633,walking
1761225764249982200,-0.1814180223694071,-0.1208218436419963,-0.2907493712365627,-0.0247782655060291,-0.0986228138208389,-0.3024250566959381,walking
1761225764259995100,-0.0376536580245941,-0.1809855127036571,-0.033543957683444,-0.0248614437878131,-0.1520334035158157,-0.3063878118991852,walking
1761225764270009300,0.1240077071364968,-0.1727975300729274,0.1112473750889301,-0.0138034671545028,-0.2060404419898986,-0.3076080679893493,walking
1761225764280022300,0.2263850356146693,-0.1236614509820938,0.1040945807248353,0.0132501665502786,-0.2313138544559478,-0.3012788295745849,walking
1761225764290036200,0.3060710051394998,-0.0171340901523828,0.0744493840456008,0.0387512631714344,-0.2587212324142456,-0.2912746667861938,walking
1761225764300049400,0.3570793078429997,0.0887421132922172,0.1190180090904235,0.0584820955991745,-0.2699473202228546,-0.2841394543647766,walking
1761225764310063000,0.3627587782515212,0.1158878943711519,0.2058417215406894,0.0631948262453079,-0.2428406178951263,-0.2823511362075805,walking
1761225764320076300,0.3428532506244257,0.065228551235795,0.3094032183021307,0.0449774712324142,-0.2049445956945419,-0.2815984189510345,walking
1761225764330090200,0.3957756798535585,0.0610386983305215,0.4470774125456809,0.0182819440960884,-0.168884590268135,-0.2626337707042694,walking
1761225764340103200,0.5293303464816883,0.1054886654317378,0.5734229880452155,-0.0055660437792539,-0.1526898741722107,-0.2314738780260086,walking
1761225764350117000,0.6580499211035669,0.1266886898487806,0.6857493905425072,-0.021606795489788,-0.1586380451917648,-0.1953345239162445,walking
1761225764360130300,0.7649876162998378,0.0802788208514451,0.7294295423150062,-0.0355806685984134,-0.1876265406608581,-0.1652029752731323,walking
1761225764370144300,0.7942248167000711,-0.001712064614892,0.7428992647409438,-0.0376590006053447,-0.2300624251365661,-0.1438186019659042,walking
1761225764380157200,0.7688299709416926,-0.0817372029662132,0.6515729801744222,-0.0200567469000816,-0.2628941535949707,-0.1351012885570526,walking
1761225764390171400,0.7283066757649183,-0.1630325073838233,0.4803332009375095,0.0076348017901182,-0.2894820868968963,-0.1324802041053772,walking
1761225764400185000,0.6681938601076602,-0.2001338652878999,0.3380219945430755,0.0350126326084136,-0.3116936683654785,-0.126872181892395,walking
1761225764410198300,0.6321721141338348,-0.2215139224469661,0.2902373300611973,0.0584804080426692,-0.3484354615211487,-0.1239392459392547,walking
1761225764420212200,0.5619235793115571,-0.223897602713108,0.3226017225712537,0.0807641372084617,-0.3902990520000458,-0.1210575550794601,walking
1761225764430225200,0.4763306507652625,-0.2610088974893093,0.2793190456837415,0.0942961946129798,-0.4083384871482849,-0.1307671666145324,walking
1761225764440239000,0.3824540241288021,-0.3320879283189773,0.1993032596826553,0.1079582124948501,-0.417124480009079,-0.1486330777406692,walking
1761225764450252300,0.2907132039446383,-0.3655190732777118,0.0643307256132364,0.1202894449234008,-0.387613445520401,-0.1705623418092727,walking
1761225764460266200,0.2203729357182979,-0.3538239593088627,-0.1335550684869289,0.1327609419822693,-0.3395226001739502,-0.1850679665803909,walking
1761225764470279200,0.1653380809124559,-0.3567021450936794,-0.2480085461407899,0.1439169198274612,-0.2939060926437378,-0.1936508119106292,walking
1761225764480293400,0.1762886966569349,-0.3723854519158601,-0.2792927421987056,0.162601038813591,-0.2527081370353699,-0.1940200924873352,walking
1761225764490306000,0.2389642754742875,-0.4475046980470418,-0.3118248924911022,0.1771056801080703,-0.2171328216791153,-0.196814015507698,walking
1761225764500320300,0.2707608049685135,-0.5691589008599519,-0.2276771212518215,0.177674800157547,-0.2007579952478408,-0.2109170705080032,walking
1761225764510333200,0.3076070190677419,-0.6818202344000339,-0.0796416919916868,0.1552592366933822,-0.2070718258619308,-0.234149158000946,walking
1761225764520347100,0.3036678164552897,-0.7274591190248727,0.1195703822761774,0.1160427629947662,-0.2294548898935318,-0.2541209757328033,walking
1761225764530360300,0.256576139206253,-0.7100760225474834,0.2269499760210513,0.0676781609654426,-0.236069917678833,-0.2723734676837921,walking
1761225764540374300,0.2479157532908022,-0.6812666921705007,0.1804921762287616,0.0169560424983501,-0.2375810295343399,-0.2807455062866211,walking
1761225764550387500,0.2242073262494057,-0.5787620109856129,0.1198497837394475,-0.0287864133715629,-0.2631718814373016,-0.2853722274303436,walking
1761225764560401400,0.1635869994614273,-0.4002373354375362,0.1568055956929922,-0.0773582085967063,-0.3020349442958832,-0.2797353267669678,walking
1761225764570414300,0.1100934923460707,-0.1809124474674463,0.0867009628534316,-0.1064862683415412,-0.3115160763263702,-0.2563759386539459,walking
1761225764580428300,0.0827659249594435,0.0484551110893487,-0.146734868055582,-0.1086262017488479,-0.266991913318634,-0.2166357934474945,walking
1761225764590441200,0.0776068251632153,0.3023959698885679,-0.4406757288098335,-0.0792933478951454,-0.1841750890016555,-0.1558555364608764,walking
1761225764600455200,0.1173427693545818,0.5073182384967804,-0.6857523131519556,0.0066937310621142,-0.1166885197162628,-0.0865392163395881,walking
1761225764610469400,0.2103544131921604,0.6057938102960586,-1.0041630137741566,0.1611536145210266,-0.0253665968775749,-0.021753029897809,walking
1761225764620482600,0.2324023596754297,0.5934136366724968,-1.3386480663627385,0.3519554138183594,0.0440194308757782,0.0146290212869644,walking
1761225764630496300,0.1592339188184589,0.5337362898230552,-1.286771748653054,0.5286505818367004,0.0444684401154518,0.01974468678236,walking
1761225764640509400,0.1946764766648411,0.4184609743922948,-0.8441133215934038,0.6526731848716736,-0.0399367436766624,0.0280054900795221,walking
1761225764650523400,0.3752794928569346,0.2647147662699222,-0.2647755565464496,0.7082746624946594,-0.1509633958339691,0.0695201754570007,walking
1761225764660536300,0.6204071497991681,0.080890815269947,0.2009083567917347,0.6950887441635132,-0.3143472075462341,0.0858340337872505,walking
1761225764670550300,0.6281790989749133,-0.1408101541817188,0.6493740088254213,0.6233479380607605,-0.4576825499534607,0.0765196308493614,walking
1761225764680563200,0.4507292861167341,-0.2075479409366846,0.8528975165516137,0.5087551474571228,-0.5564331412315369,0.0375159606337547,walking
1761225764690577200,0.1626839131418615,-0.2783282810807228,0.9084896399140358,0.3617545068264007,-0.6070603728294373,-0.0266031026840209,walking
1761225764700590300,-0.1805385361211374,-0.2944505638420581,0.9149468532294034,0.1920593380928039,-0.6133334040641785,-0.1032681316137313,walking
1761225764710604500,-0.4833902138879522,-0.1893079353690147,0.8453653674811125,0.0136496424674987,-0.5482758283615112,-0.1721792817115783,walking
1761225764720617200,-0.7244363371375948,-0.0326081381380558,0.6252981367111206,-0.1631796360015869,-0.4262725114822387,-0.240325927734375,walking
1761225764730631400,-0.8731083107355981,0.1459463480263948,0.4305716834247112,-0.3271201252937317,-0.3004948794841766,-0.2974890768527984,walking
1761225764740644000,-0.8781952586110681,0.370873293787241,0.2253390336930751,-0.4284780025482178,-0.1620173007249832,-0.323687344789505,walking
1761225764750658300,-0.7630137589436023,0.6772481041789055,-0.2854384053468704,-0.4384786784648895,0.0199575684964656,-0.3075632452964782,walking
1761225764760671500,-0.5995517010360956,0.9746534261733292,-0.9731547120481728,-0.3510584831237793,0.2519910633563995,-0.2686403691768646,walking
1761225764770685400,-0.523181358865276,1.2040022800296544,-1.438024386394024,-0.2281778156757354,0.4618484079837799,-0.2243227064609527,walking
1761225764780699100,-0.436187112153694,1.30431091247499,-1.3161433890879153,-0.1114085838198661,0.5380004048347473,-0.176697090268135,walking
1761225764790712300,-0.21471518395124,1.2252514042854308,-0.8093091347157955,-0.0113011598587036,0.487413078546524,-0.1136270463466644,walking
1761225764800726500,0.1386310931095853,1.0685054298251866,-0.2614174782902002,0.0839701443910598,0.3382605314254761,-0.0257423538714647,walking
1761225764810739200,0.3173789464216679,0.9232172534465788,-0.0025555297017097,0.1718525886535644,0.2110597193241119,0.0569812878966331,walking
1761225764820753400,0.265721495627053,0.8121142552644014,0.0357084422409534,0.2392323464155197,0.0757648721337318,0.1175115182995796,walking
1761225764830766300,0.1206319836257025,0.7231804187923669,0.2347615265548229,0.2715034484863281,-0.0775565057992935,0.1581833213567733,walking
1761225764840780300,-0.0199341874659992,0.5968401039898396,0.4525304172545671,0.2520091235637665,-0.188833475112915,0.186078667640686,walking
1761225764850793500,-0.1175455253850668,0.4145458467751741,0.6012099896371365,0.1919130384922027,-0.2527821063995361,0.2089924961328506,walking
1761225764860807400,-0.1773845108033157,0.2661842543005943,0.7075865438193082,0.0919081345200538,-0.2855622172355652,0.236883670091629,walking
1761225764870820400,-0.2791239980356768,0.2044552356183528,0.7619716294795275,-0.028656892478466,-0.2786116302013397,0.2601162791252136,walking
1761225764880834300,-0.4271217256339266,0.163050043040514,0.6509335132271051,-0.1446391642093658,-0.1951467245817184,0.2783493101596832,walking
1761225764890847500,-0.5716510099366306,0.1295160222291946,0.4390110104680061,-0.2421851605176925,-0.0512545257806777,0.2897127568721771,walking
1761225764900861200,-0.7240348436646163,0.0933931539684534,0.2425929508328437,-0.3187347054481506,0.1080138236284256,0.2847387194633484,walking
1761225764910874400,-0.7788423925206065,0.0930582229256629,0.1642167487323284,-0.3597002625465393,0.2476279288530349,0.2766368389129638,walking
1761225764920888300,-0.7068593255233019,0.0944821182489395,0.1064671550750732,-0.3614740967750549,0.3555716276168823,0.2798628211021423,walking
1761225764930901200,-0.6210510006606579,0.1273480305403471,0.1211012451052665,-0.3202896416187286,0.4064465165138244,0.2952830493450165,walking
1761225764940915500,-0.5113261589638889,0.1098340011596679,0.0998942064255476,-0.2315252125263214,0.4459982514381408,0.3075398504734039,walking
1761225764950928100,-0.4651395773284137,0.0401326884239912,0.0355137964516878,-0.1255790889263153,0.4877952337265014,0.3036899864673614,walking
1761225764960942300,-0.4936728672429919,-0.0401975703537464,0.1268348203212022,-0.0260330587625503,0.4806055426597595,0.2898437976837158,walking
1761225764970955300,-0.4930130881600081,-0.0873550428479909,0.4235667730987071,0.0441755913197994,0.4331666529178619,0.2705878019332886,walking
1761225764980969500,-0.3969665701385587,-0.1824257746398448,0.7442518483936786,0.0891701430082321,0.3672909140586853,0.2478573620319366,walking
1761225764990983200,-0.2900035578379407,-0.3131336370021104,0.9929653279334306,0.1029964759945869,0.2946622669696808,0.2192797809839248,walking
1761225765000996400,-0.2032105145205743,-0.3846645032525062,1.165341417723894,0.0917577594518661,0.2379302531480789,0.1983731538057327,walking
1761225765011010300,-0.1832582068759947,-0.3217021433830261,1.3440326820105313,0.0375030413269996,0.1810105144977569,0.1830242872238159,walking
1761225765021023200,-0.1757559414871037,-0.2120698022753,1.5387737483441828,-0.0496062934398651,0.1402336508035659,0.1906273663043975,walking
1761225765031037400,-0.1595324085746891,-0.1191664776504039,1.6054536674320696,-0.1460334956645965,0.1413268744945526,0.2143473476171493,walking
1761225765041050400,-0.1509334522565826,-0.0114829325228929,1.446243348684907,-0.2499387562274933,0.1779606640338897,0.2429219484329223,walking
1761225765051064300,-0.2410220117216929,0.0614221446901559,1.1657190188646316,-0.3276292979717254,0.2484497427940368,0.2626698315143585,walking
1761225765061077200,-0.3479648214844986,0.175232063743472,0.7589443906128406,-0.3643294274806976,0.3343019783496856,0.2759937047958374,walking
1761225765071091500,-0.4603381318634376,0.3067670245796441,0.3973001129418611,-0.3739439845085144,0.3948963582515716,0.2867451310157776,walking
1761225765081104400,-0.4760089079976081,0.4357938019871711,0.2004950998157262,-0.3573682904243469,0.416650652885437,0.3147416412830353,walking
1761225765091118300,-0.4613614835618063,0.5015472538799047,0.0660930591106414,-0.3263017237186432,0.424307256937027,0.3515001833438873,walking
1761225765101131500,-0.4315953273840248,0.4851379708707332,-0.1137456216454505,-0.2762680947780609,0.4278345704078674,0.3878062069416046,walking
1761225765111145200,-0.3933190804816782,0.4628846380084753,-0.2406523381590843,-0.2253567278385162,0.4267645180225372,0.420987606048584,walking
1761225765121158400,-0.3915793606748804,0.459520714533329,-0.3411924412727355,-0.1674718558788299,0.4237943589687347,0.4536103904247284,walking
1761225765131172400,-0.3932805751021951,0.4328028034776449,-0.4145978692233562,-0.1097326502203941,0.4032688438892364,0.4949114918708801,walking
1761225765141185300,-0.3701404494680464,0.3617500761330127,-0.4939508074015378,-0.0336494296789169,0.3644773066043854,0.5380391478538513,walking
1761225765151199200,-0.3827505959225818,0.2560305245548486,-0.7316010411351919,0.0587438829243183,0.3824009001255035,0.5748158097267151,walking
1761225765161212400,-0.4955035167362541,0.1531868206739425,-0.9443015425294636,0.1408311128616333,0.3857437968254089,0.5829250812530518,walking
1761225765171226400,-0.6983045554067939,0.069767948231101,-0.8722031055241822,0.1965329945087433,0.3495045602321625,0.571907103061676,walking
1761225765181239300,-0.8339405948862433,-0.0593786561638116,-0.7479466112583876,0.2322929501533508,0.3321214020252228,0.5465352535247803,walking
1761225765191253500,-0.9440609387066214,-0.2342290271133184,-0.749232559415698,0.2531689405441284,0.36102095246315,0.5150300860404968,walking
1761225765201266200,-1.0160917173031716,-0.3739987323313951,-0.8042097657501697,0.2569655179977417,0.4025463759899139,0.4808719754219055,walking
1761225765211280400,-1.0857681878585368,-0.3855483003497123,-0.7462368847310543,0.2401524782180786,0.4409603476524353,0.4530675113201141,walking
1761225765221294300,-1.0401626940466462,-0.3978752824813127,-0.698226594799757,0.2343278676271438,0.5040338635444641,0.4434195160865783,walking
1761225765231307300,-0.9247339416198432,-0.402988679972291,-0.8573241008222102,0.2496607452630996,0.6204843521118164,0.4527216851711273,walking
1761225765241321200,-0.7575348891410976,-0.4273544749438762,-1.0303390730381012,0.2735666036605835,0.7219035625457764,0.473395824432373,walking
1761225765251334400,-0.5798386637737974,-0.4367728761523962,-0.9093167383879422,0.2931403219699859,0.7628938555717468,0.5074267983436584,walking
1761225765261348400,-0.3740027874520048,-0.5074684606224298,-0.6305623408496379,0.3082411587238312,0.7587835788726807,0.545767068862915,walking
1761225765271361300,-0.1349024645078927,-0.6884083806186914,-0.3132107938915491,0.3071785569190979,0.665813148021698,0.5829277634620667,walking
1761225765281375500,-0.0284723900401964,-0.9701818337172268,0.1275643036395311,0.2635765671730041,0.490175724029541,0.5954723358154297,walking
1761225765291388200,0.0030565380264073,-1.2427455599218606,0.5164601608514785,0.1926475316286087,0.2739070653915405,0.5785508751869202,walking
1761225765301402400,-0.06484974451866,-1.4413713587343693,0.6594891601264476,0.1088849902153015,0.0641145557165145,0.5353125929832458,walking
1761225765311415600,-0.2380726786631159,-1.4544769240230322,0.4901882399976253,0.0179228615015745,-0.06721843034029,0.4721387326717376,walking
1761225765321429200,-0.4761289176480844,-1.2664034988850357,0.1110433769494295,-0.0805546194314956,-0.1097587794065475,0.4037978053092956,walking
1761225765331442400,-0.6919587665766477,-0.9730734635055064,-0.3359674001008272,-0.1650087833404541,-0.0882542878389358,0.3454000055789947,walking
1761225765341456400,-0.8379705810546875,-0.673334145605564,-0.7752864536046982,-0.2353382557630539,-0.0021827700547873,0.2881016433238983,walking
1761225765351469300,-0.9728340287264436,-0.3570838378876447,-1.1575240219712255,-0.2894518375396728,0.1345290094614029,0.2201878279447555,walking
1761225765361483300,-1.069318280578032,-0.0345592722058296,-1.4171931952893733,-0.3104408979415893,0.2750307321548462,0.165932610630989,walking
1761225765371496400,-1.060725005082041,0.3541039452940225,-1.5872662688344716,-0.2918094396591186,0.4329175651073456,0.1300603598356247,walking
1761225765381510100,-0.9207589005090296,0.6815262198895216,-1.8088327982515096,-0.2250635176897049,0.5895222425460815,0.1205608621239662,walking
1761225765391523300,-0.7045287636838853,1.0328191994160414,-1.8216273978948592,-0.1371970325708389,0.6956127285957336,0.1404866278171539,walking
1761225765401537500,-0.4866241543078795,1.3727251080095768,-1.5699164901047944,-0.031436875462532,0.7252730131149292,0.1888835132122039,walking
1761225765411550200,-0.237484229516983,1.5968682099163531,-1.155645368617773,0.0889478549361229,0.7018981575965881,0.2489122301340103,walking
1761225765421564400,-0.0358914706576615,1.6697241872906683,-0.7039572474062442,0.1955049335956573,0.6707413196563721,0.3122251331806183,walking
1761225765431578400,0.0784625652097165,1.6186679537922144,-0.3498573937654495,0.2824731171131134,0.6419738531112671,0.3623418509960174,walking
1761225765441591300,0.0898739668663591,1.4971476064920424,0.044099838489294,0.3408539593219757,0.5940219759941101,0.3921661972999573,walking
1761225765451605200,0.043190432026796,1.3396458452284334,0.4818389293253421,0.3770093023777008,0.5328105688095093,0.4056258201599121,walking
1761225765461618400,0.007333813486807,1.1651678147226572,0.8568523916572331,0.3929095268249511,0.4674048721790313,0.4031504690647125,walking
1761225765471632100,-0.0236640764430165,0.9641922379136084,1.1466115828126668,0.3839154839515686,0.4085204899311065,0.3812249302864074,walking
1761225765481645300,-0.0186370420612394,0.7955652715235948,1.382521694880724,0.3456089496612549,0.3414555788040161,0.3446232378482818,walking
1761225765491659500,0.0117868473729118,0.632000264698267,1.615568818733096,0.2776488065719604,0.2606619298458099,0.2997588217258453,walking
1761225765501672200,0.081651899302937,0.4253922349601984,1.7957997136771675,0.1864760220050811,0.1534594446420669,0.2553442120552063,walking
1761225765511686400,0.1356418846983462,0.2508060679048299,1.8670184452384708,0.0820987522602081,0.0471585728228092,0.2123695909976959,walking
1761225765521699300,0.2366349192112684,0.1231172611027956,1.8340122476935383,-0.0275738704949617,-0.0500419065356254,0.163269430398941,walking
1761225765531713000,0.2525248545214533,0.049187517017126,1.7534399968534706,-0.1463607102632522,-0.1444653421640396,0.1130166351795196,walking
1761225765541726200,0.2282132008899003,0.0448895275622606,1.6013766272515058,-0.2571231722831726,-0.2231886535882949,0.0608168095350265,walking
1761225765551740000,0.1696754159970208,0.0641366643458604,1.2191776373296976,-0.3531618416309356,-0.2433674186468124,0.0149651672691106,walking
1761225765561753000,0.0700270375587046,0.1528068814456462,0.7074930203169584,-0.4233303368091583,-0.2232760936021804,-0.0318824425339698,walking
1761225765571767000,-0.0571292332692071,0.2605284204959869,0.278422973626852,-0.4801312983036041,-0.1935283243656158,-0.0803724825382232,walking
1761225765581780000,-0.1544732437552884,0.3459206388384103,-0.0487631541252136,-0.5206230878829956,-0.1528116762638092,-0.1262995302677154,walking
1761225765591794000,-0.2009820796150714,0.401132822972536,-0.3493663953781127,-0.5435041785240173,-0.0777749940752983,-0.1622801572084427,walking
1761225765601807000,-0.1838564284974709,0.4461819250106811,-0.662161009684205,-0.5427505373954773,0.0151642318814992,-0.1910290867090225,walking
1761225765611821000,-0.1752281547533348,0.5030635036617517,-0.9154472039669752,-0.5207408666610718,0.1374901384115219,-0.1993088573217392,walking
1761225765621834000,-0.144746945641376,0.6022019232839345,-1.1903911033064127,-0.4681261479854584,0.2745339870452881,-0.1960886120796203,walking
1761225765631848200,0.0077802786126732,0.6336047772854566,-1.3721563682109117,-0.3837912976741791,0.3853974044322967,-0.1765964031219482,walking
1761225765641860900,0.1638151821941137,0.7077075398504734,-1.361172617381811,-0.275617241859436,0.4593482911586761,-0.131019115447998,walking
1761225765651875000,0.3923299233138561,0.7356412564367055,-1.2011024669349193,-0.1552860289812088,0.4891743659973144,-0.0581622123718261,walking
1761225765661888000,0.627183658196777,0.6976923417925834,-0.8486369364976882,-0.0389117412269115,0.4217628538608551,0.0140478601679205,walking
1761225765671902000,0.8124871802300214,0.5607277571231126,-0.3549064938485622,0.0554829388856887,0.2775873243808746,0.0853734388947486,walking
1761225765681915100,0.9676222123622894,0.3886053498327732,0.1307633919417858,0.1262931078672409,0.0876547694206237,0.148028552532196,walking
1761225765691929000,1.013825599002093,0.1962660839438438,0.5408201106041669,0.1664455831050872,-0.1226997971534729,0.1971423029899597,walking
1761225765701942000,0.9112485832333564,0.0145317986994981,0.7920347593098879,0.1836163103580474,-0.3141678869724273,0.2228695303201675,walking
1761225765711956000,0.7174664250597357,-0.1082119529157877,0.8026794874429702,0.1766393631696701,-0.4446558356285095,0.2231124192476272,walking
1761225765721970200,0.4669159028185531,-0.1998211460769176,0.7029939553320408,0.1414115875959396,-0.5057260990142822,0.2076155394315719,walking
1761225765731982800,0.2066248712750151,-0.2776742010861635,0.5350234070241451,0.0914999693632125,-0.4993827044963836,0.1828169822692871,walking
1761225765741997000,-0.0249461521428078,-0.3380687562942505,0.288859611967206,0.0348974987864494,-0.432855874300003,0.1540561616420745,walking
1761225765752010000,-0.1806885390510782,-0.3575140459984541,0.0806330411165952,-0.0272034220397472,-0.3544912934303283,0.1164488568902015,walking
1761225765762024000,-0.3190484870690852,-0.3908464067578315,0.0047971711486577,-0.0860183537006378,-0.2704880237579345,0.0657161325216293,walking
1761225765772037000,-0.3894972571711987,-0.4746949027895927,-0.0591682282835245,-0.1317198127508163,-0.1898347437381744,0.0124638304114341,walking
1761225765782051000,-0.4599465752625837,-0.5128863940179348,-0.1855541357934474,-0.1530438214540481,-0.1018375530838966,-0.0510569736361503,walking
1761225765792064000,-0.5118571240354329,-0.5325204842925071,-0.2703665084213018,-0.156696081161499,-0.0388165153563022,-0.1233524680137634,walking
1761225765802078000,-0.5164401409767568,-0.5153975000560284,-0.2015396404325962,-0.1381830275058746,-0.0173167772591114,-0.1962087452411651,walking
1761225765812091100,-0.3824201583918183,-0.5011258135974407,-0.0546808537364006,-0.0954185128211975,-0.0407198369503021,-0.254500538110733,walking
1761225765822104800,-0.1371291458477266,-0.4252122022181749,0.1240215164661407,-0.0574179589748382,-0.1061046719551086,-0.2876626849174499,walking
1761225765832118000,0.111885380731523,-0.367195482057333,0.3389057916402817,-0.0149738313630223,-0.194262757897377,-0.2951115667819977,walking
1761225765842132000,0.3269430762438103,-0.3016623949170112,0.5154524451136588,0.0075493203476071,-0.2862251996994018,-0.2881095707416534,walking
1761225765852145000,0.4039056121541187,-0.2678448809891939,0.59131871021986,0.00345124816522,-0.3191200196743011,-0.2887921333312988,walking
1761225765862159000,0.3200290956042707,-0.3161690591752529,0.5165741426199675,-0.0114720435813069,-0.2450657039880752,-0.2897438406944275,walking
1761225765872172000,0.1620012281073257,-0.3214607358425855,0.3574333819776773,-0.0515808463096618,-0.1492787301540374,-0.2960089147090912,walking
1761225765882186000,0.0693588194409385,-0.288439925250411,0.4174158492535352,-0.1005842387676239,-0.081921674311161,-0.3092089593410492,walking
1761225765892199000,0.0767474683875218,-0.2762240022778511,0.6427800173878669,-0.1590694040060043,-0.0588445849716663,-0.322259247303009,walking
1761225765902213000,0.1493814370416104,-0.3262012083679437,0.8461427815943956,-0.2103020548820495,-0.0662550628185272,-0.3302494883537292,walking
1761225765912226000,0.2518308443753048,-0.4008306251555681,0.9495219075262546,-0.2386841624975204,-0.1364325582981109,-0.3258741796016693,walking
1761225765922240000,0.422683633588627,-0.4171042990863323,0.9467220476746558,-0.2211593240499496,-0.2631027698516845,-0.3175102472305298,walking
1761225765932253200,0.507090421090275,-0.3405120577931403,0.6849842513889074,-0.1533917188644409,-0.3855184316635132,-0.3195912539958954,walking
1761225765942267000,0.5375571998180821,-0.2244604972928762,0.2891816835284233,-0.0435071997344493,-0.4775611162185669,-0.33493772149086,walking
1761225765952280000,0.5029289174966514,-0.1097860703647136,-0.1028261682242155,0.067242220044136,-0.5081443190574646,-0.3555934429168701,walking
1761225765962294000,0.4369951040683314,0.052863575181365,-0.3612883038401603,0.1395277678966522,-0.4998083114624023,-0.3480815887451172,walking
1761225765972307000,0.4827020489607006,0.1322340490162372,-0.3607482056140899,0.1987799108028412,-0.5138500928878784,-0.3007119297981262,walking
1761225765982321000,0.7235371963407844,0.1363917532175779,-0.3266927912771701,0.2485473752021789,-0.520664393901825,-0.2358870208263397,walking
1761225765992334000,0.8303671203136443,0.0336994405061006,-0.3560363746613263,0.2771502733230591,-0.5108471512794495,-0.1972075402736663,walking
1761225766002348000,0.7121193649433553,-0.1144412026941776,-0.3519949903160333,0.3013306260108948,-0.4667980372905731,-0.182535320520401,walking
1761225766012362000,0.5298498768437654,-0.2543845109134912,-0.3264285873830318,0.3048742115497589,-0.417788952589035,-0.1918161809444427,walking
1761225766022375200,0.4800822949163615,-0.4629050962746143,-0.1796896276742219,0.2830265164375305,-0.4083032608032226,-0.2220777869224548,walking
1761225766032388900,0.5096049611944705,-0.709162999355793,0.1637239967793226,0.2284109443426132,-0.4452101290225982,-0.2581537663936615,walking
1761225766042402000,0.5750218380765989,-0.924226138228178,0.5257458755910396,0.1392343789339065,-0.5222116708755493,-0.302123874425888,walking
1761225766052416000,0.6090894177753478,-1.0687526825845242,0.6686953798890114,0.0495401881635189,-0.5886240005493164,-0.3495702147483825,walking
1761225766062429000,0.6394711120355874,-1.0479121391296389,0.463493125295639,-0.0397822335362434,-0.5850237011909485,-0.3790405392646789,walking
1761225766072443100,0.5307319569079205,-0.8517927701801061,0.1172451541990041,-0.1172908693552017,-0.5702732801437378,-0.3834949433803558,walking
1761225766082456000,0.3869724879339337,-0.5438379971206188,-0.1172720422059297,-0.1810890436172485,-0.5649194717407227,-0.3773227035999298,walking
1761225766092470000,0.2716226824948564,-0.2597808169990778,-0.3597574410110712,-0.2110732942819595,-0.5457340478897095,-0.3644788265228271,walking
1761225766102483000,0.19171603769036,-0.0370733008533716,-0.6894932532459497,-0.1871719658374786,-0.4642102718353271,-0.335854023694992,walking
1761225766112497200,0.1949036912831477,0.1485790346175432,-1.1820435461997985,-0.1129350215196609,-0.3208192884922027,-0.2907350063323974,walking
1761225766122510000,0.1663460158459842,0.3716606447726487,-1.5534189442902802,-0.0030971907544881,-0.1640444993972778,-0.2369627207517624,walking
1761225766132524000,0.1527237697394564,0.5247001659303904,-1.6286223615735769,0.1135471314191818,-0.0507877133786678,-0.1818989366292953,walking
1761225766142537200,0.3543897764980793,0.4416992266386747,-1.36341250526309,0.2285686135292053,-0.0422253683209419,-0.1281733512878418,walking
1761225766152551000,0.6137639854576439,0.1985217539161443,-0.9007096535623073,0.3149487674236297,-0.1356357336044311,-0.0910496860742569,walking
1761225766162564000,0.7441724264819175,-0.1199164192348718,-0.3517950838297605,0.3515333235263824,-0.2919315695762634,-0.0706154406070709,walking
1761225766172578000,0.7429777368046343,-0.3818336637407541,0.0946662426441907,0.3519802093505859,-0.4522099196910858,-0.081428937613964,walking
1761225766182591000,0.632471608537063,-0.5724515126645565,0.2826338693201541,0.3036125004291534,-0.5930298566818237,-0.1118089035153389,walking
1761225766192605000,0.4462319016322493,-0.6553939997673034,0.2869657610446214,0.2288783341646194,-0.6738155484199524,-0.1522737890481948,walking
1761225766202618000,0.1360958755435422,-0.5763900211572647,0.0608820464640855,0.1348274648189544,-0.6361923217773438,-0.1973323971033096,walking
1761225766212632000,-0.2472884334390051,-0.3573731762230396,-0.3067483198791742,0.027814470231533,-0.5232418179512024,-0.2389722466468811,walking
1761225766222645000,-0.5539987045964225,-0.0876145705670118,-0.6391705947190522,-0.0609690137207508,-0.3674007654190063,-0.2633705139160156,walking
1761225766232659200,-0.7282980540670454,0.2183148341447114,-1.0276561175644396,-0.1023143231868743,-0.1634295284748077,-0.2690760791301727,walking
1761225766242671900,-0.8111684988468885,0.5342483309984207,-1.436998550477624,-0.0852995663881301,0.0431515797972679,-0.2781226336956024,walking
1761225766252686000,-0.841714078431949,0.8290671436309814,-1.5653531277120112,-0.0340438336133956,0.2021412402391433,-0.2799735367298126,walking
1761225766262699000,-0.7829664867132902,1.0696715509951114,-1.3925193572819232,0.0433716773986816,0.3106203973293304,-0.2692471742630005,walking
1761225766272713000,-0.5923096209533513,1.2177163326054812,-1.1236837116897105,0.1330999583005905,0.3730643391609192,-0.2408994138240814,walking
1761225766282726100,-0.3408138902839273,1.3157891688227652,-0.7508259660869836,0.2161077708005905,0.3919657766819,-0.1916939616203308,walking
1761225766292740000,-0.1482157359967939,1.3659049066007136,-0.284596109303832,0.2764925360679626,0.3684574961662292,-0.1350554525852203,walking
1761225766302753000,-0.0145944384398171,1.378784261918068,0.2062964795708656,0.3144955039024353,0.324200838804245,-0.0784497410058975,walking
1761225766312767000,0.0472537039769114,1.3136825519323347,0.6251999370336532,0.3340809047222137,0.2496903836727142,-0.0329264625906944,walking
1761225766322780200,0.0686970858628861,1.1964788987874984,0.9717349083781242,0.3366475701332092,0.1556111425161361,0.0088391359895467,walking
1761225766332793900,0.1026779005936346,1.1243886450886726,1.2418798830032347,0.3256082534790039,0.0600681006908416,0.0416354350745677,walking
1761225766342807000,0.113536262344243,1.0671645366102456,1.450609142678976,0.2791387438774109,-0.0266448277980089,0.0748087540268898,walking
1761225766352821000,0.1019113823337014,1.0062830746680498,1.5948177071273326,0.204049065709114,-0.1025039106607437,0.1141811907291412,walking
1761225766362835000,0.0692606106303166,0.9511638295143842,1.6782546997487544,0.0976502895355224,-0.1493934839963913,0.1518010348081588,walking
1761225766372848000,-0.0004115764755755,0.8327227435290813,1.679441863706708,-0.0161031708121299,-0.1678638309240341,0.1785351783037185,walking
1761225766382862000,-0.151421391037153,0.7175701776951551,1.563262877434492,-0.1321551352739334,-0.1369833350181579,0.1940309852361679,walking
1761225766392875000,-0.3180379948522895,0.6652297496050595,1.31915601490736,-0.2366338670253753,-0.0783676952123642,0.205560877919197,walking
1761225766402889000,-0.4410092350805178,0.6149456695228814,1.0751081890910863,-0.3261137902736664,-0.0024670143611729,0.216436818242073,walking
1761225766412902100,-0.4845929407412186,0.599517214244604,0.835893774780631,-0.3886184394359588,0.063991904258728,0.2373261153697967,walking
1761225766422915800,-0.4659893990907818,0.5521726947456598,0.6023468847125768,-0.416703313589096,0.1063248589634895,0.2573607861995697,walking
1761225766432929000,-0.4625635162953287,0.4105506396591663,0.4005687593489885,-0.3936153054237366,0.125968337059021,0.2705072164535522,walking
1761225766442943000,-0.4959563385376706,0.2925210570842027,0.1243167000204324,-0.3283241093158722,0.167892649769783,0.2759326994419098,walking
1761225766452956000,-0.5514833242420106,0.239647545030713,-0.1425426770627498,-0.2369856685400009,0.2164295613765716,0.2784051895141601,walking
1761225766462970000,-0.5713895825214683,0.1847562634140253,-0.1948404350548982,-0.1571557223796844,0.2306622713804245,0.2889453768730163,walking
1761225766472983000,-0.4776968610845506,0.0978688380777835,-0.0317184958219528,-0.0917500853538513,0.2215958088636398,0.3010297417640686,walking
1761225766482997000,-0.3246472203915938,-0.0123877724081277,0.083581954050064,-0.0290121473371982,0.2209484726190567,0.3193860650062561,walking
1761225766493010000,-0.1850216728845611,-0.1048573817908763,0.2023497877717018,0.0106247439980506,0.2181505560874939,0.3429425060749054,walking
1761225766503024000,-0.1243163164279423,-0.139964935529232,0.4316559715300798,0.022237554192543,0.2018370330333709,0.3651807904243469,walking
1761225766513037000,-0.0781899588134139,-0.196439102423191,0.667901599162817,0.0113311111927032,0.1755838543176651,0.3900334239006042,walking
1761225766523051000,-0.0208288347507826,-0.2772071680963039,0.8003869925916195,-0.0136502282693982,0.1589809209108352,0.4127848148345947,walking
1761225766533064200,-0.0625114194978959,-0.4114028725743293,0.8762117566436529,-0.0632390826940536,0.145175889134407,0.4199825525283813,walking
1761225766543078000,-0.194794257825613,-0.5526689538300037,0.8992232143968343,-0.1268246322870254,0.1434283554553985,0.4121665358543396,walking
1761225766553091000,-0.3588897182658314,-0.6088339086443185,0.7862023998945951,-0.1854996681213379,0.1774638146162033,0.3940322697162628,walking
1761225766563105000,-0.497847376448661,-0.5827244848757982,0.5136328284710645,-0.2268808335065841,0.2412555366754531,0.3753942549228668,walking
1761225766573118000,-0.5844952574079856,-0.5101707053184509,0.2062315976411104,-0.2468129843473434,0.3066084384918213,0.3614265024662018,walking
1761225766583132000,-0.6432011654093861,-0.3806552676111459,-0.0978846201688051,-0.2377481460571289,0.3673634529113769,0.3613904118537903,walking
1761225766593145000,-0.6568995089594274,-0.2261316453754902,-0.3876180923610925,-0.2018580436706543,0.4210490584373474,0.3760995864868164,walking
1761225766603159000,-0.6036378743711859,-0.0732452689528465,-0.5910556753695011,-0.1330144256353378,0.4595279395580292,0.403739333152771,walking
1761225766613172000,-0.5554591325378045,0.0376157371670007,-0.6962064871490001,-0.0583473891019821,0.4705012142658233,0.4387449920177459,walking
1761225766623186200,-0.5670359904218465,0.1154524255633354,-0.665467650014162,0.0222426205873489,0.4701081216335296,0.4608946740627289,walking
1761225766633199000,-0.6107315954918041,0.1127694700896739,-0.6397726522654295,0.0940411761403083,0.4969562292098999,0.4774571359157562,walking
1761225766643213000,-0.7121505637992173,0.0802624542385339,-0.6290344006299973,0.1571628749370575,0.5524678230285645,0.4825498759746551,walking
1761225766653226200,-0.8313850651845336,0.0924321999818086,-0.5648381150513887,0.2080641388893127,0.6079038977622986,0.4812079071998596,walking
1761225766663240000,-0.8957919978391379,0.1020621981143951,-0.4131085074484348,0.2474212497472763,0.644866943359375,0.4683548212051391,walking
1761225766673253000,-0.9206383428692816,0.0677887571126222,-0.1543301454901695,0.2652750611305237,0.6521949172019958,0.4652780592441559,walking
1761225766683267000,-0.871064164622128,0.0123293202191591,0.0599748684912919,0.2762490510940552,0.6457942724227905,0.4630592167377472,walking
1761225766693280000,-0.8479171708557754,-0.0438017323255538,0.2595277190208435,0.2594426274299621,0.6151042580604553,0.452987939119339,walking
1761225766703294000,-0.904454246918112,-0.1102595330953598,0.4838374096661806,0.2323450893163681,0.5773152709007263,0.4197083711624145,walking
1761225766713307100,-0.9701946931988,-0.1673369265794753,0.5821370403766631,0.1973519474267959,0.5397197008132935,0.384263277053833,walking
1761225766723321000,-0.976627064333856,-0.175983758893609,0.5679565393328666,0.1708591729402542,0.5090115070343018,0.3683857023715973,walking
1761225766733334000,-0.9548798543628304,-0.0904506707757711,0.3783510823220014,0.1603652536869049,0.5042476654052734,0.3753218948841095,walking
1761225766743348200,-0.949767041393742,0.0626934798002243,0.0528074610799551,0.1640322208404541,0.5309220552444458,0.3827259242534637,walking
1761225766753361000,-1.0117072186086329,0.1865454849183559,-0.2598421917974948,0.184526041150093,0.5993272066116333,0.3817538917064667,walking
1761225766763375000,-1.0709743772219866,0.1829541824281215,-0.5070978737443685,0.2062800079584121,0.6898248195648193,0.3787764608860016,walking
1761225766773388000,-1.0975256264738735,0.1441530348688364,-0.5713491043806076,0.2133887857198715,0.7392339110374451,0.3745380342006683,walking
1761225766783402000,-1.0680253912232816,0.0698825145214796,-0.3636749067157506,0.1917813271284103,0.7339089512825012,0.3617668747901916,walking
1761225766793415200,-0.9927908481493593,-0.1007417631655931,-0.0204383923947811,0.1571418493986129,0.6778139472007751,0.3561566770076751,walking
1761225766803429000,-0.7457054082028567,-0.3424193527191877,0.2065945857346058,0.1187121570110321,0.5768653154373169,0.3547461032867431,walking
1761225766813442000,-0.467213241797313,-0.5567986009806394,0.346437940710783,0.072690337896347,0.4378533363342285,0.3577315211296081,walking
1761225766823456000,-0.3217205192899331,-0.7336240713953971,0.4008206882834434,0.0123935332521796,0.2797110676765442,0.3506292998790741,walking
1761225766833469200,-0.2610265244775451,-0.8727169002652168,0.3709574649393558,-0.0551948323845863,0.1263049989938736,0.3367209434509277,walking
1761225766843483000,-0.352643663483113,-0.968490227368474,0.1437690039873123,-0.1340952217578888,0.0268608778715133,0.3025284111499786,walking
1761225766853497000,-0.5608086038069799,-1.0211667555451394,-0.2244669270336627,-0.2212788611650467,0.0025214492343366,0.2463631331920623,walking
1761225766863510000,-0.8349817745022475,-0.9871505041748284,-0.6173591604053974,-0.3043084442615509,0.0356965288519859,0.1856121122837066,walking
1761225766873524000,-1.069780783523247,-0.8024152835488318,-1.0270622433245182,-0.3544062077999115,0.0964637398719787,0.1301451325416565,walking
1761225766883537200,-1.1783730409935116,-0.5245727401584387,-1.5328133786350489,-0.3600741326808929,0.2162787467241287,0.0833068639039993,walking
1761225766893551000,-1.23671782406494,-0.217616330486536,-2.0635195069819687,-0.3143375515937805,0.3800610303878784,0.0521697178483009,walking
1761225766903564000,-1.1297524371441452,0.0387877035558223,-2.4594559303551917,-0.239590510725975,0.5333044528961182,0.0418360643088817,walking
1761225766913578000,-0.9035432695530354,0.294046074694395,-2.447359249848127,-0.1382388621568679,0.6652054786682129,0.0572744086384773,walking
1761225766923591200,-0.8100123145490884,0.6142319682955741,-2.2305951522767544,-0.0180972665548324,0.7355926036834717,0.0789062529802322,walking
1761225766933604900,-0.6104186205524951,0.8427852878600358,-1.8495804037034511,0.111658863723278,0.7264946699142456,0.1186502054333686,walking
1761225766943618000,-0.3680190733999013,0.9821317992299796,-1.3908423639804124,0.2337210476398468,0.6727229952812195,0.1582442224025726,walking
1761225766953632000,-0.2280925701849162,1.0404957253932952,-0.9429735087960958,0.3423109054565429,0.6063341498374939,0.1864079535007476,walking
1761225766963645000,-0.1496267170395702,1.0456909559488297,-0.5272855062484741,0.4351217150688171,0.540564775466919,0.2144543677568435,walking
1761225766973659100,-0.0551112810429185,1.0689870758622884,-0.1243032560169696,0.4918845891952514,0.4811179041862488,0.2290381044149398,walking
1761225766983672000,-0.0034940891934558,1.0338339294165373,0.251561270186305,0.5302115678787231,0.405201256275177,0.2344476580619812,walking
1761225766993686000,0.0401792675120756,0.9476122745126484,0.5896259348273277,0.5379922986030579,0.3320298492908478,0.2167400270700454,walking
1761225767003699000,0.0532363540165126,0.8488251525461673,0.8574065184086561,0.5093502402305603,0.2589878439903259,0.1817040145397186,walking
1761225767013713200,0.0243246227109804,0.7485901698589325,1.1088649127423762,0.4543266594409942,0.1833578050136566,0.1234114021062851,walking
1761225767023726000,0.0642520343538373,0.6270113703697919,1.2942927918076514,0.3670563697814941,0.1052950024604797,0.0616133622825145,walking
1761225767033740000,0.111986576083675,0.53406303755939,1.4049690890103577,0.2553665935993194,0.0356022082269191,0.0058454386889934,walking
1761225767043753200,0.1984480310928076,0.4480781140208244,1.4628262346953154,0.1191108375787735,-0.0352844446897506,-0.0479247532784938,walking
1761225767053767000,0.2845028049971908,0.423884168484807,1.4755027609169482,-0.034561812877655,-0.1226915270090103,-0.094401977956295,walking
1761225767063780000,0.353897901327908,0.4544423883557319,1.4070125775367022,-0.1742581725120544,-0.1888176351785659,-0.1229438334703445,walking
1761225767073794000,0.4253144204836338,0.5512538263350725,1.1140572206884622,-0.2870239019393921,-0.2335933595895767,-0.1336436122655868,walking
1761225767083807000,0.3861255522483959,0.7089630928695202,0.7141437103778123,-0.3808591365814209,-0.2374120056629181,-0.1409546583890915,walking
1761225767093821000,0.2520751379925757,0.8238374262839555,0.3183183461636305,-0.4495969116687774,-0.2097513526678085,-0.1543010920286178,walking
1761225767103834000,0.0948137613561004,0.8543103059589863,-0.0773562114030122,-0.492334246635437,-0.1605563759803772,-0.1756098419427871,walking
1761225767113848000,-0.0575837355710566,0.8754746745407581,-0.5143108738631009,-0.4782218933105469,-0.0849737375974655,-0.1946242749691009,walking
1761225767123861000,-0.2386697860397398,0.9518570724755524,-0.9972177246809004,-0.4118985533714294,0.0466117598116397,-0.2126369923353195,walking
1761225767133875200,-0.3352199062017724,1.0632429792523383,-1.4451713355392215,-0.2948704659938812,0.1778792440891266,-0.2235290557146072,walking
1761225767143888000,-0.3891142857355997,1.1534160021305084,-1.585976813545823,-0.1551674902439117,0.2692087590694427,-0.2280185967683792,walking
1761225767153902000,-0.2932894111081958,1.1931868715047835,-1.4471324064791202,-0.0084403604269027,0.3127570450305938,-0.2175838053226471,walking
1761225767163915000,-0.0856629981078207,1.1644511908859014,-1.063208492460847,0.1152742952108383,0.2723374962806701,-0.190263420343399,walking
1761225767173929000,0.1292241996757686,1.064140804874897,-0.4960433957666158,0.2080172896385193,0.1828526109457016,-0.1456972807645797,walking
1761225767183942100,0.3401391328275203,0.9488730882287024,0.0238870715439319,0.2656019926071167,0.0740930885076522,-0.0862228348851203,walking
1761225767193956000,0.5038871680695564,0.8200801195770502,0.485699696406722,0.2971620559692383,-0.0590330064296722,-0.0217556953430175,walking
1761225767203969000,0.6164318164274096,0.66015609960258,0.914874957036972,0.2904709577560425,-0.2104619145393371,0.0330570489168167,walking
1761225767213983000,0.7047071889907122,0.4955418759852647,1.2532330516666172,0.2612358331680298,-0.3552345335483551,0.0886601284146308,walking
1761225767223996000,0.7031956884492189,0.3446721000820398,1.4201695807516574,0.2108469009399414,-0.4620593190193176,0.1354679614305496,walking
1761225767234009900,0.5707188071204349,0.2485352003633975,1.4697691857010124,0.1320396959781646,-0.5236331820487976,0.1576925665140152,walking
1761225767244023000,0.2919066515129059,0.0855412714242935,1.461862358099222,0.0386162735521793,-0.552062451839447,0.1522259563207626,walking
1761225767254037200,-0.0144000986112281,-0.1148977142900228,1.3586650184750555,-0.0615793019533157,-0.5503454804420471,0.1121227443218231,walking
1761225767264050000,-0.2788214714251458,-0.2802408367037773,1.158990587392449,-0.1480743288993835,-0.5407761931419373,0.0492204949259758,walking
1761225767274064100,-0.4776403451243415,-0.365582201641798,0.960690951794386,-0.213807538151741,-0.5175944566726685,-0.0372273102402687,walking
1761225767284077000,-0.5632034995868802,-0.4361030140668153,0.665631900665164,-0.2430281043052673,-0.4865975975990295,-0.1230955347418785,walking
1761225767294091000,-0.6142495770175009,-0.4924556004077196,0.2396463759869337,-0.2410155534744262,-0.4218375384807586,-0.199612945318222,walking
1761225767304104200,-0.6183724291011691,-0.4557300900787114,-0.0792582456320524,-0.2138027548789978,-0.3728708028793335,-0.2758062779903412,walking
1761225767314118100,-0.6074408103181049,-0.4453852216750383,-0.1765396392107009,-0.1835638880729675,-0.3460296094417572,-0.3464447557926178,walking
1761225767324131000,-0.5072045124566182,-0.4307710053890943,-0.1556827291429042,-0.1512432396411895,-0.3472101092338562,-0.4037398099899292,walking
1761225767334145000,-0.343688934263587,-0.4284942926287651,-0.054254737278819,-0.1223367601633071,-0.3828938007354736,-0.4485533535480499,walking
1761225767344158000,-0.1532827553290873,-0.4019406322240829,0.0859802473634481,-0.109845295548439,-0.4416873157024383,-0.4765979945659637,walking
1761225767354172000,-0.0431957292564213,-0.3496516420602798,0.1945049194902181,-0.1068662852048873,-0.4757062494754791,-0.4937471449375152,walking
1761225767364185000,-0.003863580092974,-0.2846533924490213,0.1900444329500198,-0.1099916771054267,-0.4831030070781708,-0.5053869485855103,walking
1761225767374199000,0.013744703442417,-0.2136374899834394,0.2377753214180469,-0.1311209201812744,-0.4885489046573639,-0.5135465860366821,walking
1761225767384212000,0.0798740029102191,-0.1558580857098102,0.3334948725074529,-0.1524064093828201,-0.4967808127403259,-0.502835750579834,walking
1761225767394226200,0.1784794846994802,-0.1162999823033809,0.3985527433514594,-0.1762781888246536,-0.4837891161441803,-0.4880784153938293,walking
1761225767404238800,0.2396945259775966,-0.1156494094401597,0.4076829752683639,-0.1896441429853439,-0.4748690724372864,-0.4741467833518982,walking
1761225767414253000,0.2851937829360366,-0.1038590184032917,0.3320470117866992,-0.1664389669895172,-0.4692423641681671,-0.4701392650604248,walking
1761225767424266000,0.2601972888454795,-0.0649994186550378,0.0817325267910957,-0.1108806282281875,-0.4178532063961029,-0.4558189809322357,walking
1761225767434280000,0.3069332114594057,-0.0045557636082172,-0.1699935785681009,-0.0353453904390335,-0.3706121742725372,-0.4405281841754913,walking
1761225767444293000,0.4441131193799897,-0.0195674547791481,-0.16596680727005,0.0337732210755348,-0.3859839141368866,-0.4402255117893219,walking
1761225767454307000,0.5923079404529183,-0.095456516239047,0.0675683923602104,0.0818038582801818,-0.4445436298847198,-0.4335931837558746,walking
1761225767464320000,0.8284891976125538,-0.2014893715500831,0.263055308625102,0.1023610681295394,-0.5090354681015015,-0.4234661757946014,walking
1761225767474334000,1.0178172989867629,-0.320076003485918,0.4127753299713134,0.1011985912919044,-0.5833017230033875,-0.4015435874462127,walking
1761225767484347100,1.1114084597453475,-0.3673386899203061,0.5786258173853158,0.0736675485968589,-0.6729919910430908,-0.3802357017993927,walking
1761225767494360800,1.1975509119331835,-0.4151175091832876,0.6314473069906235,0.0509374737739563,-0.7657576203346252,-0.3560504913330078,walking
1761225767504374000,1.255769292145967,-0.4436287333965301,0.466152699893713,0.0391198806464672,-0.8183950781822205,-0.3343703746795654,walking
1761225767514388000,1.2331402578391133,-0.4319347884714603,0.110708445906639,0.0423372462391853,-0.8206230401992798,-0.3119574785232544,walking
1761225767524401000,1.1582014097761362,-0.3896913915038109,-0.2553162388056516,0.0588317029178142,-0.7897934317588806,-0.3038160800933838,walking
1761225767534415600,1.0773406243182715,-0.4058920001983642,-0.5250976408153772,0.0709637328982353,-0.7251132726669312,-0.3058544397354126,walking
1761225767544428500,1.0145368160113692,-0.5617652834773064,-0.6913321591109037,0.082105167210102,-0.6412562131881714,-0.3121984601020813,walking
1761225767554442800,1.0378742177832871,-0.7565566186934709,-0.8789373822152614,0.0951940715312957,-0.5525985360145569,-0.3236708343029022,walking
1761225767564455700,1.039030036754906,-0.8938029429137706,-0.9759235922396182,0.0990860909223556,-0.4899523556232452,-0.3445942997932434,walking
1761225767574469600,0.9171209823980928,-0.964236077055335,-0.8867623767524957,0.0858065038919448,-0.5059470534324646,-0.3786356151103973,walking
1761225767584482600,0.8303341678921132,-0.9421084163993596,-0.6613730741769075,0.0537363588809967,-0.5714938640594482,-0.4071657955646515,walking
1761225767594496800,0.8297947272531687,-0.9249801714658736,-0.5645762492448091,0.0268972907215356,-0.6389533281326294,-0.4213702976703644,walking
1761225767604509700,0.7918976889267564,-0.8401414953529834,-0.6441811163574457,0.0002666681539267,-0.6839163303375244,-0.4182122647762298,walking
1761225767614523600,0.7013268989026546,-0.6501753883361816,-0.8359650864511727,-0.0126113127917051,-0.6860223412513733,-0.4076783955097198,walking
1761225767624536800,0.5714921295804902,-0.3785445590674877,-1.152521683639288,0.011496502906084,-0.6059037446975708,-0.3877435028553009,walking
1761225767634550500,0.4714968739332631,-0.0747398914247751,-1.52643273768723,0.0738296508789062,-0.4549073576927185,-0.3461680710315704,walking
1761225767644563700,0.4810983035584911,0.1520797362148761,-1.7955033610790967,0.1717720329761505,-0.2690227627754211,-0.2855778932571411,walking
1761225767654577700,0.6002982085544616,0.2110562413185834,-1.878463968360424,0.2984926998615265,-0.1106155589222908,-0.2124674618244171,walking
1761225767664590600,0.7492892580389976,0.0875450124621391,-1.7106646849662064,0.4312702417373657,-0.0298023857176303,-0.1475548297166824,walking
1761225767674604500,0.7799743191599845,-0.1973345899581909,-1.210138590827584,0.5312809944152832,-0.0703833699226379,-0.1252665668725967,walking
1761225767684617700,0.728999041943252,-0.530070168530941,-0.5020569569677115,0.5804991126060486,-0.213030532002449,-0.1392369717359542,walking
1761225767694631700,0.61740307261236,-0.8842793277651071,0.1703168191730976,0.5717916488647461,-0.409967303276062,-0.1869246065616607,walking
1761225767704644600,0.5008288764774799,-1.1811164944827557,0.6306126097321509,0.5039312243461609,-0.6106394529342651,-0.2614727318286896,walking
1761225767714658800,0.3094319694725796,-1.3379764507114886,0.82517188975811,0.3903668522834778,-0.758655309677124,-0.347634494304657,walking
1761225767724671500,0.0381711973589845,-1.2222007845431566,0.7771013940721749,0.2411345839500427,-0.8125312328338623,-0.4210260212421417,walking
1761225767734685700,-0.2513037334949709,-0.8330588436156511,0.5342611904799938,0.092155747115612,-0.77557772397995,-0.4631452560424804,walking
1761225767744699000,-0.4520599501986056,-0.3572621170639991,0.1517255159497261,-0.0415004007518291,-0.6622863411903381,-0.4763215482234955,walking
1761225767754712600,-0.5674225055214017,0.153523505282402,-0.3371563176244497,-0.1405942291021347,-0.4887723922729492,-0.4737239181995392,walking
1761225767764725800,-0.6751867146696895,0.593790068769455,-0.7616513114839791,-0.2033147513866424,-0.2883259952068329,-0.4473030567169189,walking
1761225767774739700,-0.7207917700901627,1.0355220286339522,-1.049784362742305,-0.2210889458656311,-0.0885422900319099,-0.4002774953842163,walking
1761225767784752600,-0.7059789624921977,1.405062027990818,-1.2362076825857162,-0.1807624101638794,0.0987978801131248,-0.3309455513954162,walking
1761225767794766600,-0.6307000688198954,1.6272329530417915,-1.327598849081993,-0.1033166274428367,0.2480989396572113,-0.2635638415813446,walking
1761225767804779800,-0.5730385187722742,1.6897966689825057,-1.2237848388642072,0.0027332843746989,0.3423559963703155,-0.2055489420890808,walking
1761225767814793500,-0.4774452609436586,1.728607168892026,-0.9453945984631776,0.1251425594091415,0.3582481443881988,-0.1555843204259872,walking
1761225767824806700,-0.3740466631263494,1.720758793479204,-0.4944195939570665,0.2368950098752975,0.322329968214035,-0.107460968196392,walking
1761225767834820900,-0.2924238437874242,1.6483230873435737,-0.0106669399648904,0.3282665014266968,0.2506525814533233,-0.0698917582631111,walking
1761225767844833500,-0.2542483538458123,1.468197990861535,0.4386129510611295,0.3855673372745514,0.1618084758520126,-0.039966881275177,walking
1761225767854847700,-0.2278998423581011,1.3213555707782507,0.8785855000376701,0.3961805701255798,0.063364990055561,-0.0205945167690515,walking
1761225767864860700,-0.230304656743817,1.20609896004796,1.2553706482172011,0.3688297569751739,-0.0244547594338655,-0.0058738584630191,walking
1761225767874874600,-0.235970427420549,1.1004606570124629,1.482491304630041,0.3102934956550598,-0.0705370306968689,0.007463252171874,walking
1761225767884887800,-0.2494597495961003,0.9891425547748804,1.5955752474963665,0.2279297560453415,-0.0927665382623672,0.0205857343971729,walking
1761225767894901800,-0.2272218334986828,0.8835872538477182,1.667876513597369,0.1241737902164459,-0.1033491417765617,0.0370403379201889,walking
1761225767904914700,-0.2166097289935685,0.8105348771184683,1.7560007872521877,0.0111842937767505,-0.1135311275720596,0.0622580014169216,walking
1761225767914928600,-0.1666788462632335,0.7295552145212888,1.793223725709319,-0.1135685518383979,-0.1265063285827636,0.085246667265892,walking
1761225767924941800,-0.1515324227967299,0.6660615242540836,1.7355378449380396,-0.2298225462436676,-0.1284025460481643,0.1154254600405693,walking
1761225767934955500,-0.1457495376795064,0.6137210961639881,1.5725959384471178,-0.3304252922534942,-0.1376272141933441,0.1520966589450836,walking
1761225767944968700,-0.2492460337801836,0.5694985080778598,1.2574386866629124,-0.3981798887252807,-0.115538589656353,0.1739563792943954,walking
1761225767954982700,-0.4039240611262619,0.4699515076547861,0.7510328868359327,-0.4162313342094421,-0.059855617582798,0.1800813823938369,walking
1761225767964995600,-0.594652019361034,0.3603466390758753,0.2075759979873895,-0.3898791372776031,0.0123931933194398,0.1639831662178039,walking
1761225767975009800,-0.674295830244571,0.3514525540024042,-0.1476297710686922,-0.3398969173431396,0.070724681019783,0.1504266113042831,walking
1761225767985022500,-0.6532517270416021,0.3671592417001724,-0.3239250801295041,-0.2766262888908386,0.1106444150209426,0.1523417234420776,walking
1761225767995036700,-0.5486650519508868,0.3429752330362796,-0.3826169230729341,-0.2196628451347351,0.1541527360677719,0.1703446954488754,walking
1761225768005049600,-0.4227275823282078,0.3137649206429719,-0.4049193557739257,-0.1691161394119262,0.215970829129219,0.1931128799915313,walking
1761225768015063800,-0.3261687674030661,0.2606225285202264,-0.3093395054161548,-0.1458318531513214,0.2602331340312958,0.214081272482872,walking
1761225768025076700,-0.2941668880624696,0.1648649835079908,-0.0830266582548618,-0.1398126780986786,0.2902277410030365,0.2188757359981537,walking
1761225768035090700,-0.2803130251571536,0.0340074835419654,0.1204267068445682,-0.1551032066345214,0.2975514233112335,0.2216803133487701,walking
1761225768045103600,-0.2272860761076212,-0.0582189647346734,0.3007885346919298,-0.1710012108087539,0.2829719185829162,0.2222613543272018,walking
1761225768055117600,-0.1338345064828172,-0.119461076682806,0.446001307746768,-0.2004789412021637,0.2457500100135803,0.2199734300374984,walking
1761225768065130800,-0.0863429979949258,-0.1293441727936267,0.5611369224458933,-0.2336336225271225,0.1978959441184997,0.2312743216753006,walking
1761225768075144700,-0.0491031632019206,-0.1236257951468229,0.5164619144171476,-0.2597922384738922,0.1918409764766693,0.2537197172641754,walking
1761225768085157600,-0.0608099676085636,-0.0991524481475353,0.3301426394701003,-0.279136449098587,0.2160386741161346,0.274002730846405,walking
1761225768095171600,-0.1250341275747865,-0.0346539647519588,0.1520154388070106,-0.2946429848670959,0.2445893585681915,0.2870088219642639,walking
1761225768105184500,-0.1910874574632383,0.0523503649622201,-0.0018196166425943,-0.2991169095039367,0.2924141883850097,0.3067586719989776,walking
1761225768115198700,-0.2449156764256767,0.1315267775297164,-0.2188689608961343,-0.2704059183597564,0.3389721214771271,0.3269371688365936,walking
1761225768125211600,-0.2526381421701982,0.2060609172493219,-0.5346610034525394,-0.2064778059720993,0.418406218290329,0.3559387922286987,walking
1761225768135225900,-0.2400218947684392,0.3244838830560446,-0.858117297026515,-0.1133601143956184,0.5050175786018372,0.3902917206287384,walking
1761225768145238500,-0.272128549657762,0.436788073721528,-0.9259797038972376,-0.0211393777281045,0.5469061732292175,0.4267720282077789,walking
1761225768155252700,-0.2791040512261912,0.459736987632513,-0.7694161002665758,0.0659462586045265,0.5593724250793457,0.4648488163948059,walking
1761225768165265700,-0.2156545106279663,0.3583230242937803,-0.5730781201303005,0.1391697973012924,0.5587517619132996,0.5054708123207092,walking
1761225768175279600,-0.1496453212753404,0.2173620634645223,-0.3676847268790006,0.1962463855743408,0.5403131246566772,0.5421433448791504,walking
1761225768185292800,-0.1486220061095897,0.1011012441277503,-0.1316618020862341,0.2277427315711975,0.505070149898529,0.5629097819328308,walking
1761225768195306800,-0.1938700191201642,-0.0306090732753276,0.1123088668406009,0.2420598864555359,0.4468774199485779,0.5739648342132568,walking
1761225768205319700,-0.2649359712725505,-0.1577425842821598,0.3236018395245075,0.2339455634355545,0.4000972807407379,0.5745033621788025,walking
1761225768215333600,-0.3728153677657246,-0.2554243753552436,0.4141705837219953,0.2063323110342025,0.3833715617656708,0.5657432079315186,walking
1761225768225346600,-0.4787946297260001,-0.3282710003793239,0.3742360482186079,0.1745302677154541,0.3994247913360595,0.5438261032104492,walking
1761225768235360500,-0.6125885119374841,-0.353403688070178,0.3107663233488797,0.1333290338516235,0.4266828000545501,0.511864960193634,walking
1761225768245373700,-0.7572273575618863,-0.3245475959420204,0.2969002950817346,0.0818026289343833,0.4643151462078094,0.4816104769706726,walking
1761225768255387600,-0.8888591298360377,-0.301390592238307,0.3238952695131302,0.0209067892283201,0.4884279370307922,0.4555069506168365,walking
1761225768265400600,-0.9657827219754456,-0.331834830340743,0.2308095740586519,-0.0162088628858327,0.5249778628349304,0.4224237501621246,walking
1761225768275414800,-1.074222565362975,-0.3676619305253029,-0.057844870725274,-0.0261203497648239,0.5780413150787354,0.3784046173095703,walking
1761225768285427500,-1.1969994155302643,-0.2807780123203993,-0.3016378449976444,-0.0001819729804992,0.6097806692123413,0.336494117975235,walking
1761225768295441700,-1.2747579241238534,-0.105922965195775,-0.4959504567861557,0.0624105669558048,0.6475778818130493,0.3027854263782501,walking
1761225768305454800,-1.216529314778,0.0222463185995817,-0.6510667842179536,0.1371983289718628,0.6644162535667419,0.2941398620605469,walking
1761225768315468500,-0.963712053181231,0.0268622879624366,-0.6151753866255283,0.2114786952733993,0.6947808265686035,0.2886114120483398,walking
1761225768325481700,-0.9521277061104774,0.2025157919883728,-0.4790887538343668,0.2704117894172668,0.7360086441040039,0.293896347284317,walking
1761225768335495700,-0.8403752310436219,0.2727466815561056,-0.254310276633501,0.3127459287643432,0.756768524646759,0.3265831768512726,walking
1761225768345508600,-0.5722308921838178,0.2032008516430854,-0.0389133757621049,0.338869959115982,0.7448452711105347,0.3822443783283233,walking
1761225768355522600,-0.263952915051952,0.0659825844734907,0.1905231563776731,0.3433374166488647,0.719786524772644,0.446416974067688,walking
1761225768365535700,-0.1211538886079564,-0.0699894820272922,0.388031349337101,0.3246035873889923,0.6915767192840576,0.501722514629364,walking
1761225768375549400,-0.0923953568364493,-0.1784422579616308,0.594429535716772,0.2809889912605285,0.6517161130905151,0.5454902648925781,walking
1761225768385562600,-0.1189450169194489,-0.3135843033790588,0.7995341751545667,0.2198334634304046,0.5930795073509216,0.5748991966247559,walking
1761225768395576800,-0.1456824181268922,-0.5041711726427078,1.009768578696251,0.1372331380844116,0.5073091983795166,0.5948939323425293,walking
1761225768405589500,-0.1057726517385803,-0.7060574345558881,1.0741793838083744,0.0519320853054523,0.4106175601482391,0.6115346550941467,walking
1761225768415603700,-0.0975110376160591,-0.841852390924096,0.9623556701362131,-0.0340499356389045,0.3166037201881408,0.624448299407959,walking
1761225768425616600,-0.1864159767871722,-0.892392491593957,0.7971119164437055,-0.1203453913331031,0.1986689865589141,0.6230379343032837,walking
1761225768435630600,-0.4319864455934614,-0.8760001597195863,0.5753858125507831,-0.2004690021276474,0.0939886569976806,0.5917218327522278,walking
1761225768445643800,-0.7587859121154993,-0.8227589833974838,0.1486187821060419,-0.2676287591457367,0.0213157720863819,0.5326169729232788,walking
1761225768455657700,-0.9418976231928914,-0.7385387314438819,-0.3138280490070581,-0.3261407911777496,0.0105195827782154,0.4579349756240845,walking
1761225768465670700,-1.172400396324694,-0.4694119939506053,-0.7817968584120273,-0.3659923374652862,0.0726705491542816,0.3847517967224121,walking
1761225768475684600,-1.2954939842909574,-0.135779758799076,-1.2116893274009226,-0.3907184600830078,0.2239325046539306,0.322517454624176,walking
1761225768485697800,-1.2874560776554047,0.1617752007991075,-1.6805723290413617,-0.3721617460250854,0.4354783594608307,0.293310135602951,walking
1761225768495711500,-1.0712821279969065,0.4909130471408366,-2.011377231812477,-0.3051062822341919,0.6485354900360107,0.2895023226737976,walking
1761225768505724700,-0.8041535055182873,0.8188806806594133,-2.1016449472367764,-0.2120383977890014,0.8131590485572815,0.325780987739563,walking
1761225768515738600,-0.4390538266964257,1.0037076712220907,-1.8964824401319025,-0.1174309179186821,0.8757965564727783,0.3840315043926239,walking
1761225768525751600,-0.0545529165077954,1.0096294624865054,-1.4762345823228358,-0.02440538816154,0.845069408416748,0.4500051438808441,walking
1761225768535765800,0.239375486623682,0.9322299964636565,-1.0595704282194376,0.0741057395935058,0.7326105237007141,0.514540433883667,walking
1761225768545778400,0.3663105159163475,0.9219897574782372,-0.6375339334279299,0.1634595841169357,0.5714094042778015,0.5727827548980713,walking
1761225768555792600,0.3812545486785471,0.9323305342286824,-0.2993161240518093,0.243667334318161,0.4076031744480133,0.6180727481842041,walking
1761225768565805300,0.3373516940660774,0.8693500541806221,-0.0961947673857212,0.2980920970439911,0.3098968863487243,0.6358603239059448,walking
1761225768575819500,0.193436413475871,0.6849339825063944,-0.0814472801089286,0.3245308697223663,0.2997094988822937,0.623963475227356,walking
1761225768585832700,0.020737795466464,0.5471838004171848,-0.0768681356251239,0.3243971168994903,0.3438106477260589,0.5871753692626953,walking
1761225768595846700,-0.1358206205324269,0.4825771804720163,0.0416746571689844,0.2980304658412933,0.3938724994659424,0.5316407084465027,walking
1761225768605859600,-0.1805673968894407,0.4372024997413158,0.2794944022506475,0.2558113932609558,0.4286768734455108,0.4664743840694427,walking
1761225768615873500,-0.1161217944585718,0.3843500304758548,0.5243816015005112,0.189321830868721,0.4456774294376373,0.4048826694488525,walking
1761225768625886500,0.0516920471839606,0.3265554286330938,0.7353624394953251,0.1192432269454002,0.4322820007801056,0.3484718203544616,walking
1761225768635900400,0.2195661128474399,0.3075193042516708,0.8846540062963962,0.0486801192164421,0.3880820572376251,0.3004273176193237,walking
1761225768645913600,0.3536775731081142,0.3418295701324939,0.9859142403781412,-0.0174209717661142,0.3000941872596741,0.2582195699214935,walking
1761225768655927300,0.4858447309006005,0.3708756318747997,1.077495961010456,-0.0763183757662773,0.174486443400383,0.2163895517587661,walking
1761225768665940500,0.5686423661725595,0.3895446765094995,0.9844295547783374,-0.1230376660823822,0.0653468444943428,0.1909817606210708,walking
1761225768675954700,0.6274940393202006,0.4260808017462492,0.6868599821329117,-0.1553271561861038,0.0178384520113468,0.1803248673677444,walking
1761225768685967400,0.5694103183377534,0.5726748000264168,0.2895142764836549,-0.177034318447113,0.0269632413983345,0.1711870282888412,walking
1761225768695981600,0.392361779756844,0.6937322059899568,0.0655704965412616,-0.2124999016523361,0.0532004386186599,0.1495741456747055,walking
1761225768705994500,0.13780994945243,0.7332815415680408,-0.029679683470726,-0.2556968331336975,0.0893198922276496,0.1060443893074989,walking
1761225768716008400,-0.0424977370548993,0.6653121671915054,-0.124129068493843,-0.2907490730285644,0.1514149457216262,0.062075063586235,walking
1761225768726021600,-0.1299725977571215,0.6115519354313612,-0.2720493469417095,-0.3176180720329284,0.2444409877061844,0.0216053072363138,walking
1761225768736035600,-0.1741186043425463,0.6138795015960932,-0.450814845508337,-0.3289098739624023,0.3662563860416412,-0.0193181559443473,walking
1761225768746048500,-0.1855248183674178,0.6279448518276214,-0.5567804808020591,-0.3121163249015808,0.4826689958572387,-0.0554972365498542,walking
1761225768756062500,-0.1050455795730464,0.6913245603263378,-0.6051233636885881,-0.2712160348892212,0.59726881980896,-0.078437440097332,walking
1761225768766075600,0.0540260978884063,0.8108937735587358,-0.48559155985713,-0.2255996465682983,0.6497544050216675,-0.0763787403702735,walking
1761225768776089300,0.3379298227475956,0.9109867174267768,-0.1237397769153118,-0.1780036389827728,0.6238998770713806,-0.0437060184776783,walking
1761225768786102500,0.7094101790498941,0.9708207161426544,0.2995867576867342,-0.1398698091506958,0.5314157605171204,0.017954571172595,walking
1761225768796116500,1.048950980658084,0.9139934980273248,0.6194114167600869,-0.0992044135928154,0.405284434556961,0.0998816639184951,walking
1761225768806129400,1.298728728428483,0.8325999939322472,0.7994090874701738,-0.0670504719018936,0.2814450562000274,0.1902246177196502,walking
1761225768816143600,1.414435713274777,0.7691045500993728,0.9152075499922036,-0.045650377869606,0.162543699145317,0.2787251770496368,walking
1761225768826156500,1.3876758627735075,0.6897767463624477,0.9350222575306892,-0.0271185934543609,0.0634259060025215,0.3623063862323761,walking
1761225768836169500,1.2692305390045049,0.5896288574367762,0.9203197784394024,-0.0189434867352247,-0.0204825699329376,0.442074179649353,walking
1761225768846183400,1.106846412526816,0.4426286164432764,0.8773872301638126,-0.0213468186557292,-0.1094049587845802,0.5042881369590759,walking
1761225768856196600,0.8957438478484749,0.2274526648461818,0.903188610896468,-0.0407852306962013,-0.1992831826210022,0.534785807132721,walking
1761225768866210600,0.5982957096256315,-0.0046130467534065,0.8682306947618722,-0.0655078813433647,-0.2674175202846527,0.5334535837173462,walking
1761225768876223500,0.2872393903542309,-0.2236392440378665,0.7165005026370287,-0.0910284146666526,-0.2889707684516907,0.499055951833725,walking
1761225768886237700,-0.0263109742226079,-0.3685509883195161,0.5037678525388241,-0.1221442595124244,-0.2836543023586273,0.4425082504749298,walking
1761225768896250400,-0.2899060522802174,-0.4582061248034239,0.3293985431045294,-0.1505782902240753,-0.2562024295330047,0.3704228699207306,walking
1761225768906264600,-0.5073612373882904,-0.5895055233180523,0.1294236677706241,-0.1707369238138198,-0.1954858154058456,0.2825454771518707,walking
1761225768916277800,-0.6123105352463201,-0.6862760447651147,-0.096875735387206,-0.1806263029575348,-0.1088659763336181,0.1853968352079391,walking
1761225768926291500,-0.640105172155425,-0.6977472868502139,-0.2858160064876079,-0.1736129522323608,-0.025760980322957,0.100126102566719,walking
1761225768936304600,-0.5599465070849284,-0.6248311037212609,-0.5052502000510692,-0.1366038024425506,0.0969087406992912,0.0327579826116561,walking
1761225768946318600,-0.4126323778366669,-0.499629437559843,-0.7464268543452024,-0.0873034670948982,0.2243836671113968,-0.0058995345607399,walking
1761225768956331500,-0.2297042431652546,-0.3680594054102897,-0.7040297281205654,-0.0309901256114244,0.2948897778987884,-0.0332001298666,walking
1761225768966345500,0.007104023318924,-0.309109788313508,-0.3831909235686063,0.0142740216106176,0.280381441116333,-0.0451760441064834,walking
1761225768976358700,0.2831802511565387,-0.3071189067572355,0.0388677830547094,0.0470428839325904,0.2112231403589248,-0.0476621054112911,walking
1761225768986372400,0.5350769638422876,-0.3601034779697656,0.344472193595767,0.0674209520220756,0.1118496805429458,-0.0392955355346202,walking
1761225768996385500,0.7099388790991157,-0.3812462192416191,0.5302098692625761,0.0712670907378196,0.0094857588410377,-0.0197274293750524,walking
1761225769006399700,0.8017541162263602,-0.3424433181166648,0.662082683750987,0.0642512589693069,-0.0838404595851898,0.006200841628015,walking
1761225769016412400,0.8535530578508973,-0.3081692925930023,0.7258680504411459,0.04655721783638,-0.1557314246892929,0.0252554919570684,walking
1761225769026426600,0.8525511873319744,-0.2764730086028575,0.6781003370940685,0.0124970925971865,-0.1971274316310882,0.0448260232806205,walking
1761225769036439300,0.8268549474742263,-0.297196063157916,0.6022995384395122,-0.0250979512929916,-0.2272214293479919,0.0615525357425212,walking
1761225769046453500,0.770202209142968,-0.2999082447260618,0.4728595040559768,-0.0557335428893566,-0.2376926988363266,0.0768777355551719,walking
1761225769056466700,0.7128099775560199,-0.2700333309441804,0.1929588590919971,-0.0580789893865585,-0.204055368900299,0.0931858718395233,walking
1761225769066480600,0.6594502163555472,-0.207757784295082,-0.2362298455417156,-0.0255142040550708,-0.149004116654396,0.1087983474135398,walking
1761225769076493600,0.6210650291860104,-0.1230167233377695,-0.5704208836197853,0.0292222760617733,-0.1150884926319122,0.1265943944454193,walking
1761225769086507500,0.635679829993844,-0.0416056835860013,-0.672834379389882,0.1012293621897697,-0.1243746951222419,0.1449464410543441,walking
1761225769096520400,0.683761431595683,-0.0983989994317293,-0.661758274102211,0.1702869832515716,-0.1623497605323791,0.1621952056884765,walking
1761225769106534400,0.7349601423047483,-0.1921948889821767,-0.5593506235510111,0.2252779752016067,-0.2195454090833664,0.1789760738611221,walking
1761225769116547600,0.7568633465550839,-0.2959182983070612,-0.4345861797630787,0.2674704492092132,-0.2700807452201843,0.1885581314563751,walking
1761225769126561500,0.7303120973031968,-0.3699532563328743,-0.3288677972286939,0.2858684360980987,-0.298568457365036,0.1944746524095535,walking
1761225769136574500,0.695029844585061,-0.4317664461672306,-0.2498275782614946,0.2816760838031769,-0.3138390481472015,0.1942743808031082,walking
1761225769146588700,0.6878190364234149,-0.5129647199511528,-0.1576905618339777,0.254689484834671,-0.3074805736541748,0.1918552070856094,walking
1761225769156601300,0.6970758173294365,-0.5541074622005224,-0.0959983680307865,0.2102951258420944,-0.2783405184745788,0.1958542168140411,walking
1761225769166615600,0.7040232983797788,-0.6451952618360519,-0.0533674330502748,0.153157353401184,-0.2458508014678955,0.201056569814682,walking
1761225769176628500,0.6470791028212756,-0.7094915006577969,-0.064544076102972,0.0887911617755889,-0.2304231077432632,0.1996064782142639,walking
1761225769186642700,0.5408477292634546,-0.7451894215047359,-0.0772720402508974,0.0340076237916946,-0.2335192561149597,0.18881756067276,walking
1761225769196655600,0.411273839367181,-0.7390484345316887,-0.0178875388681888,-0.0196494814008474,-0.2959498763084411,0.1755060255527496,walking
1761225769206669600,0.3256393732341006,-0.7105775423288345,0.0409171167999505,-0.0648011788725853,-0.3872938156127929,0.1619846224784851,walking
1761225769216682500,0.2370268046056851,-0.6359627385884523,-0.0664233139783144,-0.0950584188103675,-0.4746436178684234,0.1554465591907501,walking
1761225769226696400,0.1280554481573402,-0.5159995576024056,-0.2994698533087969,-0.1027092933654785,-0.5288342833518982,0.1490503549575805,walking
1761225769236709600,0.0427643886344507,-0.388413626652956,-0.6671820527166128,-0.0874706879258155,-0.5218573808670044,0.1617096960544586,walking
1761225769246723600,-0.0862956334555521,-0.1308574999660253,-1.1101496918559073,-0.0475510731339454,-0.4338784217834472,0.1812217980623245,walking
1761225769256736500,-0.2242679703954607,0.103858433881402,-1.4489385791182516,0.0126709872856736,-0.3224392533302307,0.2058405876159668,walking
1761225769266750500,-0.2849820398814976,0.2500684012800455,-1.6093530129581688,0.0848841220140457,-0.216807410120964,0.2219720035791397,walking
1761225769276763400,-0.3438233012329786,0.2828203318029642,-1.5559972703456877,0.1545963585376739,-0.1275606304407119,0.2248335778713226,walking
1761225769286777600,-0.3879978123936802,0.2494546532958745,-1.3855349052220582,0.206924706697464,-0.0666644647717475,0.2078911960124969,walking
1761225769296790500,-0.4847281479608267,0.1833604251414537,-1.1146557711035012,0.2455940693616867,-0.0332369953393936,0.1751660108566284,walking
1761225769306804500,-0.5889326188009232,0.1378834530800581,-0.7678384756863117,0.2706741392612457,-0.015046807937324,0.1289380639791488,walking
1761225769316817400,-0.5863446481343358,0.1215606793105602,-0.5003460613965988,0.2893591225147247,0.0084726326167583,0.0850981771945953,walking
1761225769326830600,-0.557608748319745,0.1227186171740293,-0.3575935409754514,0.2969473302364349,0.0336936526000499,0.0442490987479686,walking
1761225769336844500,-0.556173235623911,0.1861404112488031,-0.1425228033185005,0.2948149442672729,0.0416229479014873,-0.0039951321668922,walking
1761225769346857500,-0.5623219675119966,0.3004699702620506,0.0866623844087123,0.2760790288448334,0.0531103163957595,-0.0454763062298297,walking
1761225769356871700,-0.5146569838870316,0.3968272347331046,0.1910872200012207,0.2563894689083099,0.0772092565894126,-0.0823016986250877,walking
1761225769366884400,-0.430593822191283,0.5474965196281671,0.2454161915600299,0.228358194231987,0.1146765127778053,-0.0989389047026634,walking
1761225769376898600,-0.2977147532697767,0.6882879691094159,0.3426993387043476,0.1848115175962448,0.1430359780788421,-0.1040993109345436,walking
1761225769386911700,-0.1937541011229157,0.84190090624094,0.4395329885154962,0.1392446458339691,0.1638818681240081,-0.0915124341845512,walking
1761225769396925400,-0.0547829258713871,0.9755383923143148,0.4979390002548694,0.0872312560677528,0.179878681898117,-0.0659079998731613,walking
1761225769406938600,0.0445383029717952,1.0852291856110097,0.5609142196059227,0.0274663642048835,0.2104560583829879,-0.038564458489418,walking
1761225769416952600,0.1153109712660312,1.140814879232645,0.576937718167901,-0.0334398634731769,0.2414411455392837,-0.0036970204673707,walking
1761225769426965500,0.1907545539807528,1.156346794885397,0.583851443079114,-0.0957114100456237,0.2700163424015045,0.0325723402202129,walking
1761225769436979500,0.2418874694446101,1.175629002982378,0.5624626180917024,-0.1486864686012268,0.2844698429107666,0.0670807883143425,walking
1761225769446992600,0.2621554371759295,1.1220897204965352,0.4803694412946701,-0.1932361721992492,0.29424649477005,0.1047542467713356,walking
1761225769457006300,0.2779599957576021,1.0761971533715724,0.4056722199678421,-0.2257605493068695,0.2883042097091675,0.1442217677831649,walking
1761225769467019500,0.2791064623789862,1.0415846896737813,0.2693628843367099,-0.2426099330186844,0.277357280254364,0.181908369064331,walking
1761225769477033700,0.3117934013742953,0.976560136577487,0.167151048618555,-0.2599159777164459,0.2589689493179321,0.2176903337240219,walking
1761225769487046400,0.3183907538127153,0.9059259269058704,0.1313958446264267,-0.2677750885486603,0.2347509264945984,0.2497025281190872,walking
1761225769497060600,0.3765569289142266,0.8427174833208322,0.0049058922201395,-0.2651484310626983,0.2243329137563705,0.2875034511089325,walking
1761225769507073500,0.3918023192431777,0.8186609004288912,-0.1930897919952869,-0.2427789717912674,0.2359488755464553,0.3224490582942962,walking
1761225769517087500,0.3542064192878082,0.8414443946450948,-0.347202495342493,-0.2056390643119812,0.2831885516643524,0.3645088970661163,walking
1761225769527100700,0.3066224284771829,0.8571844000905752,-0.5849123503088951,-0.1533631682395935,0.3791532516479492,0.4079567193984985,walking
1761225769537114600,0.2331056125739589,0.8198568322151899,-0.7419201905757188,-0.0887026861310005,0.4791946411132812,0.4294572174549103,walking
1761225769547127800,0.1789116290390491,0.7202911270916461,-0.634694910609722,-0.0391508564352989,0.5503453016281128,0.4425448775291443,walking
1761225769557141800,0.2076967382902279,0.6199906779527664,-0.3345680546969175,0.0058624278753995,0.5879557728767395,0.4596208035945892,walking
1761225769567154700,0.3218989445967599,0.4978600897997617,-0.0895902545541524,0.0339752286672592,0.6071117520332336,0.477872759103775,walking
1761225769577168600,0.4586514208855107,0.3407096261918544,0.1839449470311403,0.0449676923453807,0.6087146997451782,0.4921835064888,walking
1761225769587181800,0.5256387254221364,0.1939671593517065,0.4837450552076101,0.0214542150497436,0.5974004864692688,0.5004409551620483,walking
1761225769597195500,0.585614105370082,0.1159954463988542,0.7919821523398161,-0.0200950913131237,0.5570130944252014,0.5030463337898254,walking
1761225769607208700,0.616411504291743,0.0870148511081933,1.052577792853117,-0.0789687260985374,0.5105682015419006,0.5133734941482544,walking
1761225769617223000,0.7020921111214905,0.0931394714683294,1.1344237168908118,-0.1402323544025421,0.4738037884235382,0.5413553714752197,walking
1761225769627235600,0.8015734258972108,0.120861591130495,0.9647738371938468,-0.1896235793828964,0.476380854845047,0.5891128182411194,walking
1761225769637249800,0.8554000008918344,0.1777455078691244,0.6632640024900436,-0.2228553146123886,0.512218177318573,0.6512068510055542,walking
1761225769647262700,0.8406897768855094,0.2788280472964048,0.3012777795135974,-0.2384005337953567,0.5659693479537964,0.7095761895179749,walking
1761225769657275600,0.7200463585503399,0.3473246604174375,0.0239466927766799,-0.2365760058164596,0.6113362908363342,0.7591853141784668,walking
1761225769667289900,0.5657407995121553,0.3717863169789314,-0.0943845030933618,-0.2239286452531814,0.6127834320068359,0.7960060238838196,walking
1761225769677302500,0.427211595874466,0.3681722181349992,-0.1605810225784778,-0.2029051184654235,0.5921761393547058,0.8316311240196228,walking
1761225769687316700,0.3060929612429812,0.363254635477066,-0.2912958992034197,-0.1735672950744629,0.5928491950035095,0.8619028329849243,walking
1761225769697329700,0.1819909999517723,0.3658843994587659,-0.4836176294356584,-0.1331093609333038,0.6231149435043335,0.8864321112632751,walking
1761225769707344000,0.0747496821664273,0.4062240086317062,-0.7094768876105546,-0.0789773091673851,0.6861263513565063,0.9220629930496216,walking
1761225769717356800,-0.010800905075483,0.4584194752931594,-0.9776122759789228,-0.0058972425758838,0.7741169333457947,0.9541580677032472,walking
1761225769727370800,-0.1037450366348028,0.4779986205101013,-1.1595359463155268,0.0700948014855384,0.8785166144371033,0.9775442481040956,walking
1761225769737383700,-0.1786985342776402,0.4178834667652845,-1.1217577120631932,0.142950639128685,0.9468637108802797,0.9923508763313292,walking
1761225769747397600,-0.2406551146380603,0.3187713506281375,-0.8467191201776265,0.1953847259283065,0.9618839025497437,1.005858063697815,walking
1761225769757410800,-0.2358262697095051,0.1994301009327173,-0.5033668705224991,0.2308385968208313,0.958351731300354,1.0137791633605957,walking
1761225769767424500,-0.2277051783025264,0.0508107343047857,-0.2236450892567634,0.2485433667898178,0.9282466173171996,1.0145994424819946,walking
1761225769777437700,-0.264772560871765,-0.0550718988806009,0.0605459463775157,0.2513260841369629,0.8871609568595886,1.0036972761154177,walking
1761225769787451600,-0.2664716564072296,-0.0953384428173303,0.254780232232809,0.2394136786460876,0.8458207249641418,0.9907304048538208,walking
1761225769797464600,-0.3055202759215608,-0.1035831240713596,0.4229617929428815,0.2038346529006958,0.8194311857223511,0.9833537340164183,walking
1761225769807478800,-0.3613601634999737,-0.1674298655599355,0.4572270506381988,0.1570847332477569,0.8164170384407043,0.9695433974266052,walking
1761225769817491700,-0.4420899795219302,-0.237650233733654,0.3974374755859374,0.1036137863993644,0.8259863257408142,0.9444420337677002,walking
1761225769827505700,-0.57283536088299,-0.2223725851029157,0.3169084793657064,0.0467617139220237,0.8261334300041199,0.9202980399131776,walking
1761225769837518600,-0.7179851882368325,-0.1552495984226465,0.1614315019279718,0.0156200397759675,0.839720606803894,0.897095799446106,walking
1761225769847532800,-0.778168146520853,0.0161292970240116,-0.1757902821481227,0.008972842246294,0.8795228004455566,0.8885527849197388,walking
1761225769857545700,-0.7956253311477601,0.253126035284996,-0.5491553927510976,0.0204273629933595,0.9439625144004822,0.8961188197135925,walking
1761225769867559700,-0.7622885864742099,0.4550006067603826,-0.7835890025258064,0.0441965460777282,1.0047214031219482,0.923198103904724,walking
1761225769877572900,-0.6086435006387532,0.6427811864316463,-0.8698778774470091,0.0711277574300766,1.024162769317627,0.9890681505203248,walking
1761225769887586600,-0.4179202916443347,0.7759510549932718,-0.8969523468554019,0.1256937682628631,1.0212488174438477,1.0770103931427002,walking
1761225769897599700,-0.2926773801570758,0.8177204047083855,-0.9522095391750336,0.1910341680049896,1.0378116369247437,1.1756384372711182,walking
1761225769907613700,-0.3098261198893189,0.7849649670541285,-1.0810738194972276,0.2705307900905609,1.0546921491622925,1.2614823579788208,walking
1761225769917626600,-0.3841885197712108,0.6570908668130636,-1.1358709930896758,0.3601344525814056,1.081775784492493,1.331335186958313,walking
1761225769927640600,-0.4214969445547089,0.5048188228964805,-1.0896084236085417,0.4410861730575561,1.0673201084136963,1.3902263641357422,walking
1761225769937653800,-0.4275057930480688,0.260256033295393,-0.8277771038204431,0.4909077882766723,0.9731467366218568,1.4321815967559814,walking
1761225769947666700,-0.4279157255558297,-0.0806955849587917,-0.4016735057204961,0.4948402047157287,0.8202545046806335,1.4470075368881226,walking
1761225769957680600,-0.486441710413061,-0.4857037880599498,0.0560848753154277,0.451778769493103,0.6532764434814453,1.4327876567840576,walking
1761225769967693800,-0.5825814596759155,-0.8242074286401271,0.2428296821981668,0.3765071928501129,0.5214543342590332,1.3934134244918823,walking
1761225769977707500,-0.7175695931732654,-1.063926285341382,0.1791279021382331,0.2984052002429962,0.475286602973938,1.330600023269653,walking
1761225769987720700,-0.8977898936580866,-1.1114940922021863,-0.1196709200412034,0.2367752194404602,0.5112999677658081,1.2403953075408936,walking
1761225769997735000,-1.1319369415763765,-0.9887070859670638,-0.4296235889196396,0.2034217864274978,0.6109554767608643,1.1165082454681396,walking
1761225770007747600,-1.242194648040831,-0.8576987793534994,-0.7368845344960689,0.193914845585823,0.7685046195983887,0.979611337184906,walking
1761225770017761800,-1.1052211494125426,-0.745258395087719,-0.9999000956326722,0.1976456642150879,0.9676496982574464,0.8490927219390869,walking
1761225770027774700,-0.7741120760630815,-0.6512111611247062,-1.086412842437625,0.2026036381721496,1.133063793182373,0.7411207556724548,walking
1761225770037788700,-0.4027094977047294,-0.5532897160768508,-0.8140466846317053,0.1924964189529419,1.1710247993469238,0.6533400416374207,walking
1761225770047801900,0.089029003942199,-0.4335229344457387,-0.2762298474967479,0.1775963902473449,1.0715140104293823,0.5880545973777771,walking
1761225770057815800,0.65017136974819,-0.2790051574289798,0.1859609630286693,0.1670681238174438,0.874640941619873,0.5540875792503357,walking
1761225770067828700,1.1235361199125646,-0.1143529398888349,0.3490975153088569,0.1647957414388656,0.6775220036506653,0.5363458395004272,walking
1761225770077842700,1.3559478684708477,0.0841056856632232,0.2168447615921497,0.1610920876264572,0.5513728260993958,0.5258854627609253,walking
1761225770087855900,1.3294444769486784,0.3370651322096586,-0.0718055915385484,0.1486970037221908,0.5124462246894836,0.5032529234886169,walking
1761225770097869600,1.1225010777764022,0.614413170081377,-0.3879109378278255,0.1252036690711975,0.5632177591323853,0.4672928154468536,walking
1761225770107882800,0.8906310348793863,0.8609627495855092,-0.6640963616609573,0.0860795453190803,0.687569260597229,0.4342845678329468,walking
1761225770117896700,0.7941269092835486,1.0789683716505765,-0.8430430620133876,0.0380121544003486,0.8535773754119873,0.4139446914196014,walking
1761225770127909600,0.8217721643172204,1.2689824094623328,-0.9515642270088196,0.0041809463873505,1.0365667343139648,0.4139921367168426,walking
1761225770137923800,0.9732533501170576,1.4585831902980804,-0.9527975681960582,-0.0184319540858268,1.2014813423156738,0.4300691187381744,walking
1761225770147936500,1.1600882464360445,1.5831220086365938,-0.7837205199509859,-0.0296317022293806,1.2971588373184204,0.4644273817539215,walking
1761225770157950700,1.4086894247077404,1.6037731669992208,-0.4521609994202852,-0.0420790538191795,1.316823959350586,0.5028448104858398,walking
1761225770167963600,1.6466937325760722,1.5753437758505344,-0.0837292535662651,-0.0429128780961036,1.2743111848831177,0.548950731754303,walking
1761225770177977900,1.7870763089954853,1.4847639257371426,0.1360194127738475,-0.0261815655976533,1.2179163694381714,0.6027582883834839,walking
1761225770187990800,1.8964425465129315,1.4160738358706235,0.2627455120235681,0.0034746816381812,1.118256449699402,0.6467486619949341,walking
1761225770198003700,1.9123504558712243,1.365000066715479,0.4509609759807586,0.0336104817688465,0.9744918346405028,0.6848912239074707,walking
1761225770208017700,1.858687254744768,1.2728998751670122,0.6036755029678345,0.0648518279194831,0.827202558517456,0.717843770980835,walking
1761225770218030600,1.8174376911200585,1.1428466773211956,0.6846364608645439,0.0752794370055198,0.7069003582000732,0.7450039982795715,walking
1761225770228044800,1.7475800187788904,0.9894149419754744,0.7168044540196656,0.0765082314610481,0.6329097151756287,0.7639448046684265,walking
1761225770238057700,1.5721356274589895,0.8734078051388263,0.6892606135338545,0.0471958816051483,0.5855464935302734,0.76682448387146,walking
1761225770248071700,1.354484810180962,0.7958084326297045,0.6782447140008211,-0.0036593091208487,0.5673344135284424,0.7631187438964844,walking
1761225770258084900,1.1519462218388914,0.7251227850317955,0.593996989518404,-0.0643311738967895,0.6056386828422546,0.750668466091156,walking
1761225770268098600,0.9933933440871536,0.6833499281853437,0.3787970725238323,-0.115728959441185,0.6814059615135193,0.7441062927246094,walking
1761225770278111700,0.8489826811954378,0.6777350109130144,0.1701765339195728,-0.1614548861980438,0.7841160893440247,0.7258934378623962,walking
1761225770288125700,0.7163307720933109,0.6574170300275087,0.0350771586000919,-0.1860117465257644,0.8849120140075684,0.7002099752426147,walking
1761225770298138600,0.6384232104178518,0.6225023685127496,0.0463806429028511,-0.2176524847745895,0.9454906582832336,0.669334352016449,walking
1761225770308152600,0.6128512910595163,0.5165460855692625,0.1712251661896705,-0.2478484809398651,0.9568780064582824,0.6360074877738953,walking
1761225770318165800,0.7254706486213952,0.4097802398085594,0.3225894476115703,-0.2610042095184326,0.9379165768623352,0.6209806203842163,walking
1761225770328179700,0.9260080532088876,0.3607949673652649,0.3059849342912435,-0.2542056739330292,0.9235173463821412,0.6304090619087219,walking
1761225770338192600,1.130771916384995,0.3866390181958675,0.1582797598987817,-0.2260315716266632,0.9019691348075868,0.6552915573120117,walking
1761225770348206800,1.240062896709144,0.4846107321262359,0.1068114384680986,-0.1897963136434555,0.85047847032547,0.6896887421607971,walking
1761225770358219500,1.321831517726928,0.5426946723043918,0.1600070220828056,-0.1592695564031601,0.7737898230552673,0.7404962778091431,walking
1761225770368233700,1.4326694352321323,0.5477759210914374,0.2208914066344499,-0.1318642348051071,0.6741927266120911,0.8028860688209534,walking
1761225770378247000,1.4831237573146818,0.4907604869276284,0.302567234802246,-0.1168085858225822,0.5451995730400085,0.8640311360359192,walking
1761225770388260600,1.4188438851058482,0.3872662101835012,0.3772749775230884,-0.1186268180608749,0.4132713973522186,0.908543825149536,walking
1761225770398273800,1.202091112646088,0.2456447396188974,0.3016583032637834,-0.1151039898395538,0.3144603967666626,0.9321284890174866,walking
1761225770408287700,0.9541307895611972,0.1133949085116386,0.0272135856181383,-0.1067631319165229,0.2641367316246032,0.9348908066749572,walking
1761225770418300700,0.67166570093669,0.0589507861405611,-0.3063824091762304,-0.094879575073719,0.2505495250225067,0.9200665950775146,walking
1761225770428313900,0.400023765752092,0.0096060327351093,-0.5642664526432752,-0.0865112170577049,0.2561192810535431,0.8904520273208618,walking
1761225770438327800,0.1902292514650151,-0.0903477949231863,-0.804737004494667,-0.0760010480880737,0.2935883402824402,0.8589945435523987,walking
1761225770448340700,0.0744655862617306,-0.1437614052027463,-1.0559107366681098,-0.0565156936645507,0.35248664021492,0.8211820721626282,walking
1761225770458354700,-0.0156120864831842,-0.154991239747405,-1.1742869407236576,-0.0370272137224674,0.4123726189136505,0.7811784744262695,walking
1761225770468368000,-0.1290290789624676,-0.1877110215663909,-1.2589841625392435,-0.0137402340769767,0.5017092823982239,0.7332713603973389,walking
1761225770478381600,-0.2108343604625202,-0.2056114199161529,-1.2966577673733233,0.0124080134555697,0.5815625786781311,0.682375431060791,walking
1761225770488394800,-0.2847186762375757,-0.2172422364771365,-1.1874188094973563,0.0488700792193412,0.6354635953903198,0.6305488348007202,walking
1761225770498408700,-0.2734935909332707,-0.1914519616603851,-0.9691624275416136,0.0847641602158546,0.6596783399581909,0.5913558602333069,walking
1761225770508421600,-0.1718276073285378,-0.1123100358843803,-0.7326783149778843,0.1286524087190628,0.6759961247444153,0.5734590888023376,walking
1761225770518435800,-0.034671007218305,-0.0110287590146064,-0.5794242742866277,0.170305848121643,0.6761732697486877,0.5633183121681213,walking
1761225770528448800,0.1021490178813226,0.0372755454272031,-0.3912450506865978,0.2114167511463165,0.6675072312355042,0.56355881690979,walking
1761225770538463000,0.2316406180553138,0.0414338341504335,-0.1612187359601259,0.2425576299428939,0.6523942947387695,0.5610695481300354,walking
1761225770548475600,0.1971350853307172,0.0225432557195425,0.1017126540243625,0.2596020102500915,0.6155876517295837,0.5532515048980713,walking
1761225770558489900,0.1946418802754953,-0.0460492189913988,0.3255640795081854,0.2669022679328918,0.5350819230079651,0.5497785210609436,walking
1761225770568502800,0.4177513282855972,-0.2049725374907255,0.5996095687031745,0.2671387493610382,0.441531240940094,0.5590336918830872,walking
1761225770578516700,0.558480708848685,-0.3231903361141681,0.7658078466415404,0.2625623643398285,0.3597016334533691,0.5715708136558533,walking
1761225770588530000,0.5403847879268229,-0.3369540730506181,0.8606360018491744,0.2547045350074768,0.2964754700660705,0.570735514163971,walking
1761225770598544000,0.3852989286985248,-0.3352051835566759,0.8829436952471733,0.23191799223423,0.2429880201816558,0.5501407384872437,walking
1761225770608556800,0.28108150704531,-0.4121703498154878,0.8734989905536175,0.2107819318771362,0.1980252116918563,0.5167433619499207,walking
1761225770618570800,0.2064022049676626,-0.4879921912580728,0.7992056738525628,0.1896422803401947,0.1632539182901382,0.4887959063053131,walking
1761225770628583700,0.1918999976888299,-0.4731587792634963,0.7520610608398914,0.1774165034294128,0.1202356591820716,0.4683977961540222,walking
1761225770638596900,0.2173788684688508,-0.4281044165283441,0.7073632564574479,0.1717889904975891,0.0703352093696594,0.4522199034690857,walking
1761225770648610800,0.2608050820128992,-0.4006067532718181,0.6477975532889366,0.1683702617883682,0.0198329109698534,0.4421790242195129,walking
1761225770658623700,0.3020957448329776,-0.3846083891510963,0.5719336262702942,0.1735375970602035,-0.0327030010521411,0.4368742704391479,walking
1761225770668637700,0.3528337061624974,-0.3959089508444071,0.4741472057789563,0.1831231117248535,-0.0843128859996795,0.4331166744232178,walking
1761225770678651000,0.335988479421474,-0.3943406786143779,0.3744137428730726,0.202809989452362,-0.1318899989128112,0.4245423376560211,walking
1761225770688664600,0.3060990621902048,-0.349528307941556,0.2514946346908807,0.2265179902315139,-0.1724163889884948,0.4126020073890686,walking
1761225770698677800,0.2460312912510708,-0.3240940069556236,0.0973135422825813,0.2643758952617645,-0.1944628357887268,0.3928666412830353,walking
1761225770708691700,0.1848859542082995,-0.2964507977485656,-0.1190051496088504,0.3082235157489776,-0.1843433976173401,0.3701695501804352,walking
1761225770718704600,0.1460193767299875,-0.2527408353596925,-0.3098556382447481,0.3476673066616058,-0.1437797248363495,0.3467060327529907,walking
1761225770728718800,0.2117497765406966,-0.2886334019958972,-0.4157552225649356,0.3766379654407501,-0.0586268976330757,0.3274064064025879,walking
1761225770738731800,0.4256598363878205,-0.4368728293955325,-0.4108499148666858,0.3826793432235718,0.0401875637471675,0.3087695837020874,walking
1761225770748745700,0.6615088293857873,-0.6815127758860587,-0.1875730744004249,0.3360611796379089,0.0484773702919483,0.2880782186985016,walking
1761225770758758700,0.7470327112838625,-0.904572758731246,0.3685597561478614,0.2408632785081863,-0.0669118091464042,0.2561165690422058,walking
1761225770768772900,0.7389853792328387,-1.0091279427051545,0.8759247563958168,0.123715616762638,-0.2323902249336242,0.2110990583896637,walking
1761225770778785800,0.6848655934453011,-1.0030494995743036,0.9749790048658848,0.0181111600250005,-0.3517176806926727,0.153805673122406,walking
1761225770788799700,0.5411535803422332,-0.9177695094347,0.6173954007625579,-0.067056693136692,-0.3961766362190246,0.1000584959983825,walking
