timestamp,acc_x,acc_y,acc_z,gyr_x,gyr_y,gyr_z,activity
1761225820378000400,-0.8649005274258553,-0.4312175801128148,-0.5859598135352134,0.032015785574913,-0.1839983016252517,0.0378361120820045,walking
1761225820388014300,-0.784119456140697,-0.2561275551885366,-0.5941191545933485,0.1048372760415077,-0.1457938253879547,-0.0210355632007122,walking
1761225820398027500,-0.6654442691385746,-0.1467547417998314,-0.4609352575063705,0.155410960316658,-0.1254850924015045,-0.0835524722933769,walking
1761225820408040200,-0.5414237755857407,-0.0725011725872755,-0.1342652625828981,0.1470744162797927,-0.1214204877614975,-0.1196315065026283,walking
1761225820418053400,-0.3341326224217191,-0.0620744711190462,0.0705184743374586,0.1014432832598686,-0.0875442773103714,-0.1231780424714088,walking
1761225820428066300,-0.1149739943966269,-0.0138636901795864,0.0633177491784095,0.0501974672079086,-0.0133345769718289,-0.1023900732398033,walking
1761225820438080300,-0.0686334277758374,0.0367260948508977,0.1790109977602958,-0.004462850280106,0.0673642680048942,-0.0910002663731575,walking
1761225820448093400,-0.0740137691073119,0.0576461332827806,0.4532581470072269,-0.0769884884357452,0.0901940017938613,-0.0775879621505737,walking
1761225820458106400,-0.0411549441438168,0.0174725283265113,0.7243763505786657,-0.1716185957193374,0.0720932930707931,-0.0650668442249298,walking
1761225820468119300,0.0371602119518443,-0.193024325543642,0.7228267830491065,-0.2518424987792969,0.0704530477523803,-0.0212954133749008,walking
1761225820478133500,0.1643940049953758,-0.1511439166694879,0.5363403348416089,-0.2793787717819214,0.050120610743761,0.0317483656108379,walking
1761225820488146400,0.1753833087824285,0.0164601364135742,0.4124719631105661,-0.2684970796108246,-0.0143541526049375,0.0529729723930358,walking
1761225820498159400,-0.0735877987802028,0.0491664742290973,0.3643687341988086,-0.2652765214443207,-0.0862163603305816,0.0384768545627594,walking
1761225820508172300,-0.2148233752997592,0.0149234283655881,-0.0088145900964736,-0.2363183051347732,-0.095767892897129,0.0365798585116863,walking
1761225820518185500,-0.2095292509470135,0.1949269442945718,-0.536554854375124,-0.1689581722021103,-0.0124698095023632,0.0677321851253509,walking
1761225820528199400,-0.2034587719269096,0.3278729409724474,-0.6937158393770456,-0.0920271649956703,0.0598235614597797,0.0966226905584335,walking
1761225820538212400,-0.2497557186016812,0.2762064666211605,-0.4566565572738647,-0.0369463413953781,0.0698240026831626,0.11414735019207,walking
1761225820548225300,-0.2484955259401351,0.1034352400332689,-0.1018839189380407,-0.007779917679727,0.0390968173742294,0.1293216794729232,walking
1761225820558238200,-0.2157827218512073,-0.095367084389925,0.0390092373520135,0.0075806630775332,0.0393849723041057,0.1588537395000457,walking
1761225820568252400,-0.1985228133620694,-0.2089174757242202,0.054273441979289,0.0228264816105365,0.0586888641119003,0.164923295378685,walking
1761225820578265600,-0.2306053201908245,-0.2387608253240585,0.2136041722357273,0.027828961610794,0.0717604607343673,0.209038034081459,walking
1761225820588278500,-0.1938696903266012,-0.2280605676114559,0.4925689976543188,-0.0030842274427413,0.0827283188700676,0.122150108218193,walking
1761225820598291700,-0.0289751519305631,-0.2698807707309723,0.7917319769710301,-0.0509060770273208,0.0739611908793449,0.2293636500835418,walking
1761225820608304400,0.1875906100571155,-0.3055944736689329,1.0276637163490057,-0.1228837147355079,0.0242421422153711,0.1985016614198684,walking
1761225820618318600,0.2509418961789459,-0.4391472040683031,1.1364064151406288,-0.1854389756917953,-0.0550513491034507,0.3161872625350952,walking
1761225820628331800,0.1175583118014037,-0.5246271006941795,0.997528105804324,-0.2333451509475708,-0.1191009134054184,0.2604148089885711,walking
1761225820638344400,-0.074386694072932,-0.5126648602217435,0.6887362973988056,-0.2424025535583496,-0.1464233547449112,0.3517825603485107,walking
1761225820648357600,-0.2720998350199312,-0.471594598686695,0.4100841911911964,-0.2401229292154312,-0.1669135242700576,0.2686728835105896,walking
1761225820658371600,-0.4748528698302805,-0.5314665913254022,0.0514998856127262,-0.2017702162265777,-0.1666743606328964,0.343099981546402,walking
1761225820668384500,-0.6246388690847903,-0.509068297034502,-0.3296855433523655,-0.1578668802976608,-0.1215710192918777,0.2430067509412765,walking
1761225820678397700,-0.7707408460643143,-0.4364116416245698,-0.5356792405843734,-0.0993385910987854,-0.0672505274415016,0.2884770035743713,walking
1761225820688410600,-0.822752480591461,-0.35489188080132,-0.6154045192062855,-0.0604410134255886,0.0022489496041089,0.1940816044807434,walking
1761225820698424600,-0.7268374799951911,-0.260002350795269,-0.6215741477519273,-0.0089874099940061,0.0818532332777977,0.2827169299125671,walking
1761225820708437800,-0.5673510477203876,-0.2071159792602062,-0.5288023405522108,0.0204783771187067,0.1451682299375534,0.2291998118162155,walking
1761225820718450400,-0.5065566064745187,-0.2203507238864898,-0.3152104432761669,0.0506093800067901,0.1827944368124008,0.3317690789699554,walking
1761225820728463600,-0.4455886352926492,-0.261263164511323,0.0343406610190868,0.0566301196813583,0.1980842500925064,0.2804042398929596,walking
1761225820738476500,-0.4393406808137893,-0.4029793276220559,0.33055355835855,0.0602988898754119,0.1787425130605697,0.3741618990898132,walking
1761225820748490500,-0.4607609969180077,-0.5291214895039796,0.4939285955697298,0.0647046864032745,0.1643483191728592,0.303371250629425,walking
1761225820758503700,-0.6039881491135806,-0.6561959637999534,0.5010872351527214,0.0806413143873214,0.169500470161438,0.35384002327919,walking
1761225820768516600,-0.7894036070886999,-0.7296066524475813,0.5947025074392557,0.0762268751859664,0.1788493245840072,0.24534672498703,walking
1761225820778529500,-0.835433536857739,-0.7907856360316277,0.6136363404899835,0.0819819718599319,0.194945216178894,0.2867263853549957,walking
1761225820788543500,-0.724370943751186,-0.7880453974127769,0.5715373204290867,0.0875306650996208,0.2241735309362411,0.190802052617073,walking
1761225820798556700,-0.6241035200990737,-0.728152361986041,0.5415449177473783,0.118009477853775,0.2361532300710678,0.2407051622867584,walking
1761225820808569600,-0.562500612014532,-0.6379062738716602,0.5990618716925382,0.1352479457855224,0.2253634184598922,0.1510817855596542,walking
1761225820818582500,-0.5597939103391021,-0.6632207478702068,0.6795259859830141,0.1450795382261276,0.2075673788785934,0.1931056678295135,walking
1761225820828595700,-0.5555696437075733,-0.7070084516704082,0.7022375840067863,0.1271321177482605,0.2050419449806213,0.1041545495390892,walking
1761225820838609700,-0.5523657330997288,-0.6219090787947178,0.6534586477905512,0.1118937730789184,0.2256335020065307,0.1643912643194198,walking
1761225820848622600,-0.5424090602960437,-0.525582793983817,0.4702893613070249,0.0874021798372268,0.2750832438468933,0.0904826372861862,walking
1761225820858635800,-0.5481238577462733,-0.3706277945935726,0.2798532986909151,0.0926741734147071,0.3352272510528564,0.1643872261047363,walking
1761225820868648400,-0.517998403269425,-0.1933504887580871,0.2090992620319127,0.1032710298895835,0.3663651645183563,0.1070338115096092,walking
1761225820878662700,-0.4760756165582686,-0.1742898144572973,0.210115161076188,0.1375768035650253,0.3625858724117279,0.185487613081932,walking
1761225820888675600,-0.4279221187639981,-0.1260474693357944,0.0585948123097419,0.1829254627227783,0.3559257984161377,0.142687126994133,walking
1761225820898688500,-0.478890235587582,-0.0597100800752639,-0.1076221703290939,0.2426745444536209,0.3614246845245361,0.22255639731884,walking
1761225820908701700,-0.533934442743659,-0.0449386274009942,-0.2004237881451845,0.2866787314414978,0.4062688946723938,0.172054648399353,walking
1761225820918715400,-0.5893156633017584,-0.1079652846783399,-0.3495119413286447,0.3479098677635193,0.4987841844558716,0.2505683600902557,walking
1761225820928728600,-0.5772197865122929,-0.1746440347224473,-0.2283095739364624,0.3831556737422943,0.5700572729110718,0.1947463601827621,walking
1761225820938741800,-0.5102128274271265,-0.3207476191371679,0.1886374887615442,0.3935180306434631,0.5848578214645386,0.2519257664680481,walking
1761225820948754400,-0.2819172454833984,-0.4677507827401161,0.6250058757662773,0.3690221607685089,0.540001392364502,0.2120130211114883,walking
1761225820958767600,-0.0012981865843757,-0.5940607024043798,0.8674094415068626,0.3304207324981689,0.4691477417945862,0.2686794996261596,walking
1761225820968781600,0.1982188254468143,-0.6613695670455694,0.8533996208548545,0.2969124615192413,0.3983771502971649,0.3017428815364837,walking
1761225820978794500,0.2121541560905054,-0.6682008743703365,0.7735749735116958,0.2519766986370086,0.3258787095546722,0.3455723822116852,walking
1761225820988807700,0.0633851883914321,-0.6755822167932987,0.6907277634769677,0.1950351148843765,0.2424394935369491,0.3738082945346832,walking
1761225820998820600,-0.1092796552125364,-0.742600574055314,0.5493576373249293,0.1398853063583374,0.1567384302616119,0.3908373415470123,walking
1761225821008834600,-0.2197996293423697,-0.7014607544153928,0.2506681207388639,0.1155139058828353,0.0752040520310401,0.3952752947807312,walking
1761225821018847500,-0.3874727656062692,-0.558255814051628,-0.2124023952305316,0.1191480532288551,0.0474424585700035,0.3832370340824127,walking
1761225821028860700,-0.5937197800122201,-0.3141670717030763,-0.7246879007458686,0.1473468393087387,0.0976746156811714,0.3612869679927826,walking
1761225821038873600,-0.7487555895537138,-0.1396007783919572,-1.2092694067776202,0.1988057792186737,0.2597631216049194,0.3312739431858063,walking
1761225821048887600,-0.7742859713252633,-0.0078454528033733,-1.471363176894188,0.2587136924266815,0.467179924249649,0.2889682352542877,walking
1761225821058900500,-0.7340383512847125,0.0175169519901275,-1.3253747432917355,0.3030111193656921,0.6565207839012146,0.2407362461090088,walking
1761225821068913400,-0.5379084609411656,0.0217687642157077,-0.8703425723493099,0.33186936378479,0.7677728533744812,0.2052619159221649,walking
1761225821078926600,-0.1720453965313732,-0.0003086275577545,-0.1618260542035102,0.3419856429100036,0.7473999261856079,0.1757650077342987,walking
1761225821088939800,0.2530845707634463,-0.0766588767886161,0.5203191743671893,0.3220207095146179,0.6149992346763611,0.1611847430467605,walking
1761225821098953500,0.6391401995807886,-0.0898228942662477,0.9187029908925294,0.300654798746109,0.4331752359867096,0.1686035990715026,walking
1761225821108966700,0.8915015341036021,0.0056850598990917,1.0185662176579235,0.2821331620216369,0.2555854022502899,0.2007824480533599,walking
1761225821118979600,0.9532206159137188,0.1280149700164795,0.9600158290117978,0.2497890889644622,0.0871561616659164,0.2268100529909134,walking
1761225821128992500,0.8073340352505445,0.1425993756860494,0.7259346859365702,0.2120335400104522,-0.0247151181101799,0.250336080789566,walking
1761225821139006700,0.5663848695693537,0.1732669011503458,0.248608850121498,0.1734701693058014,-0.0299040228128433,0.2567372620105743,walking
1761225821149019400,0.2587575018333271,0.2061491800546646,-0.1105307512521743,0.1256285011768341,0.0407439544796943,0.2523388862609863,walking
1761225821159032600,-0.0270560935014858,0.2477648005127906,-0.3140074972271919,0.0811947137117385,0.1504400968551635,0.2256287187337875,walking
1761225821169045800,-0.1599085666770115,0.28788229136765,-0.4153711916834116,0.0492870956659317,0.2773783802986145,0.1868321001529693,walking
1761225821179059500,-0.1502232216279953,0.359576823747158,-0.4964806181401014,0.03507886454463,0.4080932438373565,0.1586726456880569,walking
1761225821189072600,-0.0258690026087686,0.4092179297506809,-0.3918909473747015,0.02627744525671,0.5029916763305664,0.1300626993179321,walking
1761225821199085600,0.1689575317849405,0.4339508044689893,-0.1553875455886125,0.0297416858375072,0.5415894389152527,0.108736902475357,walking
1761225821209098500,0.3826382946545258,0.3401069841235876,0.1541927828460931,0.0350442267954349,0.5208839774131775,0.0919530466198921,walking
1761225821219111700,0.6338979150131344,0.2915443210065365,0.4188853372842073,0.0516812615096569,0.4668119549751282,0.0848381444811821,walking
1761225821229125400,0.8695224150728433,0.2981231148749589,0.6244833131968974,0.0598055161535739,0.3903566002845764,0.0884205847978591,walking
1761225821239138600,1.0142067072741687,0.3105634942531585,0.7320499539464712,0.0631483197212219,0.3163217902183532,0.1013425067067146,walking
1761225821249151500,1.229137598069012,0.2398731704801321,0.6122101070791482,0.0773165076971054,0.2810530066490173,0.1354919672012329,walking
1761225821259164700,1.3125580779470505,0.2220540206730365,0.543326540467143,0.0943088084459304,0.2526764869689941,0.1714148223400116,walking
1761225821269178600,1.199537263444811,0.1315565881460905,0.6896230171054601,0.0992215350270271,0.1959442347288131,0.182364135980606,walking
1761225821279191600,1.0630541786819696,-0.068330024382472,0.8587871591120958,0.0828207284212112,0.1209589317440986,0.1700408905744552,walking
1761225821289204500,0.9562383562996984,-0.2171849533319473,0.9415309087723494,0.0614703893661499,0.0350368954241275,0.1485817581415176,walking
1761225821299217400,0.893224996895343,-0.2126607539057731,0.9003694618225098,0.0317178219556808,-0.0270270090550184,0.1340576857328415,walking
1761225821309231600,0.7813596360385417,-0.1698790122777223,0.7598048068344593,-0.0069671208038926,-0.0522988773882389,0.1142646968364715,walking
1761225821319244500,0.6117251365737989,-0.1650789185196161,0.5048544787317514,-0.0352429673075675,-0.0269274711608886,0.091682955622673,walking
1761225821329257500,0.4960519443992525,-0.1481675312072038,0.2058674405038356,-0.0536720007658004,0.0503193214535713,0.0619742386043071,walking
1761225821339270700,0.3894781140793115,-0.1080161380827426,0.0799532421588897,-0.0659023001790046,0.1438359469175338,0.0309465453028678,walking
1761225821349284600,0.3459044183559716,-0.0641273119956254,0.1015501569390296,-0.0783499553799629,0.2240705341100692,-0.0002778054913505,walking
1761225821359297500,0.3908631752295419,-0.0533440521746873,0.1891197193205356,-0.0870784670114517,0.2489955872297287,-0.0259048715233802,walking
1761225821369310700,0.5066474265631288,-0.0347153395503759,0.2925245642155408,-0.0891467556357383,0.2385957986116409,-0.0390700288116931,walking
1761225821379323400,0.5885192887596785,-0.0313128376305103,0.356348509350419,-0.08134076744318,0.2059337198734283,-0.0457100868225097,walking
1761225821389336600,0.6643881111491471,0.0167693484932184,0.4042968399614095,-0.0705654919147491,0.1526294499635696,-0.0363033302128315,walking
1761225821399350500,0.7543366776216774,0.0528238276928663,0.4599900856107473,-0.0586377307772636,0.0841103047132492,-0.029104009270668,walking
1761225821409363500,0.8157765040989965,0.0659305620253086,0.4497346490561962,-0.0483122803270816,0.0254095401614904,-0.0166458580642938,walking
1761225821419376600,0.802915415090695,0.0722124187737703,0.4361059366762638,-0.034868374466896,-0.0065430663526058,-0.0036642793565988,walking
1761225821429389600,0.7243146835193037,0.0742675977379083,0.4276631025016307,-0.0353357605636119,-0.02661051787436,0.0003328591119498,walking
1761225821439403500,0.6420133438643068,0.0659796618640422,0.4701882390201091,-0.042778231203556,-0.0508383587002754,0.003053278196603,walking
1761225821449416700,0.5672041500629856,0.0399649306416511,0.5223837056815623,-0.0492111705243587,-0.0883426070213317,0.0030202250927686,walking
1761225821459429400,0.4767238878665492,0.0047626843571662,0.4486965381801128,-0.0493089109659194,-0.1132966950535774,-0.0032190284691751,walking
1761225821469442600,0.3899782821537926,-0.0462625694811344,0.3926110783427953,-0.0498659461736679,-0.1389623880386352,-0.0173034369945526,walking
1761225821479456800,0.2760329366851597,-0.0573129558056592,0.4037029657214879,-0.0510385371744632,-0.1608381271362304,-0.0352198518812656,walking
1761225821489469400,0.2336393175918608,-0.0500011714875698,0.3522691310822963,-0.0484386309981346,-0.1504818201065063,-0.050990454852581,walking
1761225821499482600,0.2566692608498037,-0.0416039300203323,0.3079769848912954,-0.0526115372776985,-0.1287352591753006,-0.0658466294407844,walking
1761225821509495600,0.2792382172661833,-0.0360825362503528,0.3474363040983677,-0.0634570270776748,-0.1210300028324127,-0.0765971317887306,walking
1761225821519509500,0.2947447975482791,-0.0302151055216789,0.3559025191485881,-0.0632793977856636,-0.1380558609962463,-0.0888269022107124,walking
1761225821529522700,0.3164607355982065,-0.0131073188543319,0.1482388428777456,-0.0465098321437835,-0.1399030089378357,-0.0926317423582077,walking
1761225821539535600,0.3509006922733038,0.0470505049884319,-0.0410533104002475,-0.0057283136993646,-0.1355314254760742,-0.0953819900751113,walking
1761225821549548500,0.3981134386187419,0.1011117655217647,-0.0578968931734561,0.0426882170140743,-0.1635152697563171,-0.090217113494873,walking
1761225821559562800,0.4275302699021995,0.0921229879021644,0.1165425588876008,0.0833594799041748,-0.232153981924057,-0.0874554142355918,walking
1761225821569575400,0.4741070198990404,-0.0134071785837411,0.2793500253438949,0.1173723712563514,-0.3275727331638336,-0.090758666396141,walking
1761225821579593700,0.5009676638936623,-0.0793096835583448,0.3267541660755872,0.1410087198019027,-0.4179982542991638,-0.0911309793591499,walking
1761225821589606400,0.5195882297441363,-0.0576075548380613,0.2884966238737106,0.1658890545368194,-0.485330194234848,-0.0862081721425056,walking
1761225821599619600,0.5245224712759256,-0.0441261419743299,0.0890805514663457,0.1851626187562942,-0.504274308681488,-0.0609448924660682,walking
1761225821609633800,0.514100153721869,-0.1413730487614869,-0.1068003325521946,0.2040581107139587,-0.4650961458683014,-0.0512483976781368,walking
1761225821619646500,0.3975109792135655,-0.3127098586320876,-0.030727731218934,0.1970031261444091,-0.4288955330848694,-0.0645439624786377,walking
1761225821629659600,0.2393371273746714,-0.571743656656146,0.3788444187968969,0.1431241035461425,-0.4600401520729065,-0.1117069721221923,walking
1761225821639672600,0.1332808911880478,-0.8393617431521415,0.7640355762720108,0.0523984655737876,-0.5640131831169128,-0.1711463332176208,walking
1761225821649686500,0.0982054130883887,-0.9551865091592072,0.7826210342764854,-0.0589850097894668,-0.6552065014839172,-0.2265958338975906,walking
1761225821659699700,-0.0711050785863772,-0.8619605284512043,0.4983353060960769,-0.1562377959489822,-0.6916366815567017,-0.2725732028484344,walking
1761225821669712600,-0.3803171582305804,-0.6831091051667928,0.1094388643622398,-0.2453130036592483,-0.6462669372558594,-0.3251011073589325,walking
1761225821679725600,-0.696647947306186,-0.4876660280436277,-0.3284299903333187,-0.3043683171272278,-0.567018449306488,-0.3784194588661194,walking
1761225821689739800,-0.7579687505137175,-0.2103045461684465,-0.6925789443016052,-0.3069874942302704,-0.4901749789714813,-0.4272725582122803,walking
1761225821699752400,-0.6878674786750226,-0.0084393270432949,-1.1044202082931995,-0.2617965936660766,-0.3641427457332611,-0.4753402173519134,walking
1761225821709765600,-0.6483192390754818,0.1914332569599151,-1.323325994068384,-0.2070597112178802,-0.2054454535245895,-0.511458694934845,walking
1761225821719778600,-0.5341519214192405,0.3783990131169557,-1.1147545553028584,-0.1562213003635406,-0.0753106102347374,-0.5213286280632019,walking
1761225821729792500,-0.2501480058548971,0.4211456834316253,-0.6950847896426916,-0.1342464536428451,-0.0257629584521055,-0.5088346004486084,walking
1761225821739805700,0.1041955568812787,0.3781809864521026,-0.2928554036051035,-0.1224273517727851,-0.0306053850799798,-0.4702602624893188,walking
1761225821749818600,0.3611151026977225,0.3193196321606636,-0.0447819755345582,-0.1085729822516441,-0.0588852018117904,-0.4232162833213806,walking
1761225821759831600,0.4613489163411781,0.2771317647725344,0.0545323851764202,-0.0896829143166542,-0.0889219343662262,-0.3698571920394897,walking
1761225821769845800,0.5040075795788318,0.3116173872202634,0.1924596773982048,-0.0703641176223754,-0.1445686370134353,-0.3233327567577362,walking
1761225821779858700,0.4690332968313246,0.2492559158533811,0.3931137671679258,-0.0706711784005165,-0.2265300750732422,-0.2906741499900818,walking
1761225821789871600,0.4498291224066167,0.1557528717696666,0.4575801018595695,-0.0780146718025207,-0.3137840330600738,-0.2572354674339294,walking
1761225821799884500,0.4301041389781981,0.1507102014273405,0.3686041798114776,-0.0909395292401313,-0.3776727318763733,-0.2175490409135818,walking
1761225821809898500,0.2705267770169303,0.1877192048728466,0.1755301699072122,-0.1018177047371864,-0.3979189395904541,-0.1827448159456253,walking
1761225821819911700,0.0252603326585143,0.1869493895441293,-0.0759732326120138,-0.1075901016592979,-0.3828763365745544,-0.1618776172399521,walking
1761225821829924600,-0.2600546655043959,0.1423380944013595,-0.2020616184800863,-0.1153886169195175,-0.3534662425518036,-0.1658598780632019,walking
1761225821839937800,-0.493867001575604,0.1434194598972797,-0.2732540465563535,-0.126466304063797,-0.3111709952354431,-0.1867779493331909,walking
1761225821849951500,-0.6176097741656005,0.1816021832972764,-0.3726391344159841,-0.1359626948833465,-0.2670639753341675,-0.2160276919603347,walking
1761225821859964700,-0.6617934184808284,0.2054799024909734,-0.4948071319699287,-0.1494729220867157,-0.2033023089170456,-0.2482748478651046,walking
1761225821869977600,-0.6826730518370866,0.296354936158657,-0.6441214951246976,-0.1451576203107834,-0.1173623651266098,-0.2648037374019623,walking
1761225821879990500,-0.5853835845498367,0.4623761039644479,-0.6706658031791448,-0.1368179321289062,-0.031187267974019,-0.2738425135612488,walking
1761225821890003700,-0.4032555142149329,0.5806757356524467,-0.5699591113269329,-0.1348179429769516,0.0199189856648445,-0.2634933292865753,walking
1761225821900017700,-0.2217118196392431,0.6114245096594095,-0.4350327544867992,-0.1239447817206382,0.0318283773958683,-0.2372108548879623,walking
1761225821910030600,-0.0855046292083337,0.606274287289381,-0.4157400249958038,-0.0907323881983757,0.0255410131067037,-0.1954680532217025,walking
1761225821920043800,-0.0581978488814085,0.6738333272993564,-0.3857499604016542,-0.0438298620283603,0.0219321623444557,-0.15039724111557,walking
1761225821930056400,-0.105988833506219,0.6866062996327876,-0.251169640520215,-0.0117870327085256,0.0031292636413127,-0.1194570362567901,walking
1761225821940070700,-0.1943768726637587,0.6265004982382059,-0.0790852271527051,0.0145542938262224,-0.0104515263810753,-0.0969749018549919,walking
1761225821950083800,-0.2130341172628104,0.5322580339640378,0.09194470872581,0.0233972985297441,-0.0203225053846836,-0.0698436349630355,walking
1761225821960096500,-0.2474331208730116,0.4276946666836738,0.3189548905014991,0.0161087606102228,-0.0448669977486133,-0.0549240708351135,walking
1761225821970109700,-0.3202852623224258,0.3095996176570654,0.508894694033265,-0.0105299055576324,-0.0729216039180755,-0.0439197309315204,walking
1761225821980123400,-0.3560531796656548,0.2302338199973106,0.6101391460239887,-0.0492117889225482,-0.0952684432268142,-0.0346663109958171,walking
1761225821990136600,-0.3643309960043057,0.2143044294595718,0.5830366195648908,-0.09086724370718,-0.1021539568901062,-0.0111515112221241,walking
1761225822000149800,-0.3536599278535693,0.2212491340309381,0.4164461274385452,-0.1239048242568969,-0.0830689445137977,0.0216924548149108,walking
1761225822010162700,-0.4165388472232967,0.1941162124335765,0.2997825725197792,-0.1477531939744949,-0.0632546991109848,0.0511679910123348,walking
1761225822020176600,-0.5006860704733058,0.1599982542544603,0.2568938633859157,-0.1681412905454635,-0.0476656220853328,0.0836279317736625,walking
1761225822030189600,-0.5453907429879531,0.1223825170874595,0.2617792973399162,-0.1810366809368133,-0.0525880716741085,0.1141061633825302,walking
1761225822040202500,-0.600681326120533,0.0810591575741767,0.2217921548664569,-0.1647575795650482,-0.0711460411548614,0.1507946699857711,walking
1761225822050215700,-0.699320746712014,0.0305091200321912,0.1057505312383174,-0.1249078959226608,-0.0804118365049362,0.1725378483533859,walking
1761225822060229600,-0.8795232192791997,-0.0549900658160448,-0.0142214175760746,-0.0663503110408783,-0.0439670160412788,0.1804474294185638,walking
1761225822070242600,-1.067218020363152,-0.1383914026021957,-0.0181271928429603,-0.0103323152288794,0.0150230675935745,0.1718124002218246,walking
1761225822080255500,-1.1515543729770927,-0.2880786907225847,0.1426104816019535,0.0468502566218376,0.0748988091945648,0.1439432054758072,walking
1761225822090268700,-1.1571105457995086,-0.4956897600233554,0.4680886363923549,0.0831085294485092,0.0942896157503128,0.1032161265611648,walking
1761225822100282600,-1.1709123497240244,-0.6987216848403215,0.9652379475742578,0.0805292576551437,0.0652158856391906,0.0505499802529811,walking
1761225822110295600,-1.1249373650126158,-0.8591869720846415,1.464779122328758,0.0477224439382553,-0.0005852947942912,-0.001160722807981,walking
1761225822120308700,-1.029341586433351,-0.918172245016694,1.7397008098363875,-0.0121006779372692,-0.0735820084810257,-0.0420652776956558,walking
1761225822130321400,-0.8917058245040476,-0.895357771140337,1.7485013714075088,-0.0848866924643516,-0.1125345230102539,-0.0644846633076667,walking
1761225822140335600,-0.834973591195792,-0.7887392248958349,1.5680606331050395,-0.1530593633651733,-0.1089674830436706,-0.067675657570362,walking
1761225822150348500,-0.813717014285922,-0.6683283001422882,1.2868705328524113,-0.2111000418663025,-0.0715567022562027,-0.0624185316264629,walking
1761225822160361500,-0.8269275012537837,-0.6015647944241762,1.037439844954014,-0.256224662065506,-0.0235036872327327,-0.0517357923090457,walking
1761225822170374700,-0.8635612416461109,-0.5612246007293462,0.8633645500302314,-0.2788946330547333,0.0019902295898646,-0.0493748858571052,walking
1761225822180388600,-0.8930972788624465,-0.4982867907792329,0.6905775413513183,-0.2821178734302521,0.0030546949710696,-0.0502460077404975,walking
1761225822190401500,-0.918553499419242,-0.4688350708454847,0.4730021273970604,-0.2658680081367492,-0.0217148885130882,-0.0482639074325561,walking
1761225822200414700,-0.9453231406621634,-0.4245785804897546,0.1287725103855133,-0.2165864706039428,-0.0207484271377325,-0.0455445535480976,walking
1761225822210427600,-0.9549249356135724,-0.3288952697575092,-0.2251987484395504,-0.1500742435455322,0.009263047017157,-0.0434171445667743,walking
1761225822220441600,-0.9932866688422858,-0.2620516845405101,-0.3285515708863735,-0.0814413800835609,0.0329718366265296,-0.0387587435543537,walking
1761225822230454800,-0.9747387663692236,-0.3273562236219644,-0.2032400146096944,-0.0494119636714458,0.0341008454561233,-0.0502866171300411,walking
1761225822240467500,-0.8301671407621354,-0.4117851498901844,-0.0474152466475963,-0.0389486700296402,0.0317868217825889,-0.0442039594054222,walking
1761225822250480600,-0.6261129602253437,-0.3394949897050857,-0.0258697697937488,-0.0427590645849704,0.0491500198841095,-0.0168571583926677,walking
1761225822260494600,-0.4909937111616134,-0.2431242812305688,-0.0324929873257875,-0.0511666610836982,0.07974174618721,0.0301971696317195,walking
1761225822270507500,-0.4792966244313865,-0.2189560546576976,-0.0635030426174402,-0.0651673227548599,0.0920128896832466,0.0709575340151786,walking
1761225822280520700,-0.587842229748331,-0.3067956661522388,-0.1512473770439624,-0.0711016431450843,0.0695059821009635,0.0906854346394538,walking
1761225822290533600,-0.7128451949998736,-0.441982135233283,-0.3493395073711872,-0.0606778971850872,0.0383694283664226,0.0824774131178855,walking
1761225822300547600,-0.7947009097792208,-0.4783388122498989,-0.6289443842589855,-0.0318308025598526,0.0235087256878614,0.0660643503069877,walking
1761225822310560800,-0.9258518397338688,-0.4445288971066474,-0.9903121830761432,0.0162270441651344,0.0755392536520958,0.0542284213006496,walking
1761225822320573700,-1.0346484606698154,-0.3981131828904152,-1.3651684090197085,0.0836883708834648,0.2004657387733459,0.0425643101334571,walking
1761225822330586600,-1.1231791962336748,-0.3128670950204134,-1.3730419188737868,0.1543268114328384,0.3323313295841217,0.0288501810282468,walking
1761225822340600800,-1.0596396940633654,-0.2844306896090507,-1.2059960841953754,0.2290993183851242,0.4413946866989136,0.0161948390305042,walking
1761225822350613500,-0.888049640084058,-0.2651788766503334,-1.007245197698474,0.3164236843585968,0.5371347665786743,0.020041448995471,walking
1761225822360626700,-0.7065371078316122,-0.2532967156767845,-0.6911182240992784,0.4044429957866668,0.6191185712814331,0.0262865610420703,walking
1761225822370639600,-0.5414614772476256,-0.2770937708497047,-0.2556330496698618,0.4721568524837494,0.6624284386634827,0.0347084961831569,walking
1761225822380653600,-0.335036110600084,-0.381997914391756,0.3324386414527893,0.5043917298316956,0.6634660363197327,0.0418348498642444,walking
1761225822390666800,-0.0752284238603897,-0.5540612849712372,1.017387237006426,0.4806749820709228,0.604665219783783,0.049878790974617,walking
1761225822400679700,0.2703710384659469,-0.7104203059405088,1.5830986277610062,0.412105530500412,0.4987379908561706,0.0829480588436126,walking
1761225822410692600,0.5895349686082452,-0.7731184619158505,1.9551070630580183,0.3160231113433838,0.3530180752277374,0.1310700625181198,walking
1761225822420706600,0.7318944711238146,-0.8265636363774538,2.107222455108165,0.2033072113990783,0.2187574654817581,0.180517241358757,walking
1761225822430719500,0.7313046154718845,-0.8579396023720502,2.1170424228549,0.0770939514040947,0.0689120963215828,0.2163453549146652,walking
1761225822440732700,0.5983243146656081,-0.7026286291509867,1.9802818363249304,-0.0531511381268501,-0.0811074897646904,0.2451530247926712,walking
1761225822450745600,0.3635195334909483,-0.5505062228381633,1.5779676946133374,-0.1737191379070282,-0.1867467910051345,0.2572417557239532,walking
1761225822460759600,0.048377899400983,-0.4185059825778007,0.8115344095498322,-0.265709787607193,-0.1967115402221679,0.257190078496933,walking
1761225822470772500,-0.2372006450689397,-0.1908311994135379,-0.0627998627841472,-0.3172160387039184,-0.0925769582390785,0.2453021258115768,walking
1761225822480785700,-0.4432572697356343,0.0379436539471149,-0.8247101174652576,-0.3244507908821106,0.0738871172070503,0.2282919734716415,walking
1761225822490799600,-0.5097914967425168,0.2932838581502437,-1.3633581447273493,-0.2873240709304809,0.266162097454071,0.222095176577568,walking
1761225822500812500,-0.390450100916624,0.4466524651318788,-1.6140566606044768,-0.2168927788734436,0.4306357204914093,0.2415855228900909,walking
1761225822510825700,-0.2324176485761068,0.4844014732897281,-1.603880719026923,-0.1290281862020492,0.5297641754150391,0.2576289772987366,walking
1761225822520838700,-0.0107714141195174,0.4677548743933439,-1.361325762116909,-0.0176617223769426,0.5343804955482483,0.2670949101448059,walking
1761225822530852600,0.2286849100548774,0.459050758934021,-1.1534031426489353,0.1112730950117111,0.500857949256897,0.277504414319992,walking
1761225822540865500,0.4187808539964258,0.5032645791918039,-0.9659253453165292,0.2367860078811645,0.4727035760879516,0.2999708354473114,walking
1761225822550878500,0.5450588076198474,0.5602729990929365,-0.6627355947017669,0.343193918466568,0.4242656230926513,0.3227905333042145,walking
1761225822560891600,0.6465134317625314,0.5308323850750923,-0.2342635139048099,0.4018537700176239,0.3538226187229156,0.3443900942802429,walking
1761225822570905600,0.7726318474426865,0.43012627774477,0.1752782409727573,0.418106734752655,0.2996642291545868,0.3620085716247558,walking
1761225822580913700,0.8582469878207891,0.3863444191634654,0.5054214649647474,0.3944027423858642,0.2852770388126373,0.3744724094867706,walking
1761225822590926300,0.912229264833778,0.3347621159642934,0.7941758629918098,0.3304463922977447,0.2933500111103058,0.3810195624828338,walking
1761225822600939500,0.9208923176303504,0.2468377487957477,1.0668629233151674,0.2459999620914459,0.3010457456111908,0.3858050107955932,walking
1761225822610953500,0.9809179664608092,0.1650765804320573,1.188926291450858,0.1690850257873535,0.2850228250026703,0.3867378830909729,walking
1761225822620966400,1.050114106153324,0.0938280382543802,1.2826631442904473,0.1041739359498024,0.2416615188121795,0.375707596540451,walking
1761225822630979600,1.049671476952359,0.032381928166747,1.3691016568154095,0.0490146055817604,0.154290959239006,0.3639916479587555,walking
1761225822640992500,1.044070880466327,-0.0671317545086145,1.254893678355217,0.0085316272452473,0.0572706758975982,0.3578863441944122,walking
1761225822651006500,1.0085021389570086,-0.1373831023424863,0.9665759181797504,-0.01153074670583,-0.0044618328101933,0.3377157151699066,walking
1761225822661019600,0.8872411732453852,-0.1491974587768316,0.6532645865231752,-0.0142485024407505,-0.0420590117573738,0.3032543957233429,walking
1761225822671032300,0.8001827752564102,-0.0692635058403015,0.4657195691734552,-0.0080038644373416,-0.0708361491560936,0.261587530374527,walking
1761225822681045500,0.6748410430371761,-0.009205635240674,0.333957229322195,-0.0100185461342334,-0.0811052918434143,0.2248337715864181,walking
1761225822691059500,0.5839382445797324,-0.0124456400752067,0.2114274127185344,-0.0328914858400821,-0.0647659674286842,0.1919363439083099,walking
1761225822701072400,0.5183350878778845,-0.0311737214207649,0.1664396854788065,-0.0740197449922561,-0.0402827262878418,0.1636634320020675,walking
1761225822711085600,0.4158567101780325,-0.0074514850497245,0.0491629670977592,-0.1179241836071014,-0.0006804452277719,0.1289294213056564,walking
1761225822721098500,0.328773543073982,-0.0023562077373266,-0.1404991885364055,-0.1417861133813858,0.0488335788249969,0.0901767015457153,walking
1761225822731112400,0.2526753871743567,0.085840546631813,-0.3774392281740903,-0.1320749968290329,0.1037040501832962,0.0490141436457634,walking
1761225822741125400,0.1905520719449035,0.2006821468204259,-0.6092459965765475,-0.0918258503079414,0.183623120188713,0.0139690758660435,walking
1761225822751138600,0.1425030574384145,0.2035977420061826,-0.757282010358572,-0.0407347977161407,0.2893330454826355,-0.0236406028270721,walking
1761225822761151500,0.1533518019773066,0.1855956368476152,-0.7286579734206199,0.0189900491386652,0.3956855833530426,-0.0572371780872345,walking
1761225822771165400,0.2181962492663413,0.1334194594085216,-0.4183323795765638,0.0561637096107006,0.431711196899414,-0.0954754129052162,walking
1761225822781178400,0.3382713296616449,0.0346650706678628,0.1337678344547748,0.0609536729753017,0.415351927280426,-0.1358688920736313,walking
1761225822791191300,0.4913908572530374,-0.0616273118734359,0.6335504167497158,0.0284203961491584,0.3475247025489807,-0.1698883771896362,walking
1761225822801205500,0.6617488486867398,-0.079950904071331,0.9607155017137526,-0.0253624059259891,0.237759068608284,-0.1723792254924774,walking
1761225822811218400,0.8032471312630921,0.0020294600009918,0.9175748636454344,-0.0634303167462349,0.1561951786279678,-0.1529896110296249,walking
1761225822821231400,0.8657116976782679,0.1388993521243333,0.6746575031638145,-0.0920856595039367,0.1209961920976638,-0.1206702888011932,walking
1761225822831244500,0.8729493207816034,0.2981505874037742,0.4708160155296325,-0.09881641715765,0.0921184346079826,-0.0780043825507164,walking
1761225822841258500,0.8683339359406381,0.3736521108508109,0.3308113325119018,-0.1063502356410026,0.0715359300374984,-0.025959288701415,walking
1761225822851271400,0.8125535234645008,0.352346287971735,0.2643669757455587,-0.1120610758662223,0.05861247330904,0.0239537991583347,walking
1761225822861284600,0.7192530162155628,0.2878296843975782,0.2588999425113201,-0.1140262261033058,0.0324698202311992,0.0640277117490768,walking
1761225822871297300,0.5522040031993761,0.200497437903285,0.2264595621556043,-0.1077247336506843,-0.0025090961717069,0.0794595852494239,walking
1761225822881311500,0.3360297612799331,0.12547756049335,0.1012801078259944,-0.0901532024145126,-0.0234308894723653,0.0728147327899932,walking
1761225822891324400,0.1213402962918393,0.1150806696414947,0.0097498251199722,-0.0613213963806629,-0.0313107408583164,0.0491934046149253,walking
1761225822901337300,-0.0003216194700682,0.0787754305511713,-0.0367605816423892,-0.0301443021744489,-0.0471602752804756,0.0177736971527338,walking
1761225822911350500,0.0349210318900411,0.0705588063478469,-0.0718628746837377,-0.0005736269522458,-0.0480692125856876,-0.0007842731429263,walking
1761225822921364500,0.1554371751503087,0.1176964050978422,-0.0379255337685346,0.0225005317479372,-0.0344242416322231,-0.002255137078464,walking
1761225822931377400,0.2735570480909198,0.1246831952452659,0.161681092774868,0.0308138020336627,-0.0317086614668369,0.0125913769006729,walking
1761225822941390600,0.4340606215190142,0.0717518155246973,0.3512748593479394,0.0317259319126606,-0.0567796602845191,0.0272592678666114,walking
1761225822951403300,0.5184054862329736,0.0056347910165786,0.5126555078715086,0.0203128587454557,-0.1219092607498169,0.0449647232890129,walking
1761225822961417500,0.564938031761907,-0.0730272422879934,0.4488941065788269,0.0282645244151353,-0.2163681238889694,0.0603394210338592,walking
1761225822971430700,0.4855753759073093,-0.1164934590488672,0.0384837521731853,0.0714911743998527,-0.2627245485782623,0.0674240440130233,walking
1761225822981443300,0.2368751577079296,-0.1049807159096002,-0.348316009542346,0.135159894824028,-0.2808055281639099,0.0588782280683517,walking
1761225822991457500,0.024590374674811,-0.1474111598819494,-0.4427437672555446,0.1992330402135849,-0.3388793468475342,0.024765009060502,walking
1761225823001470500,-0.0572114042604807,-0.2439431963980197,-0.3846165724575519,0.252293586730957,-0.4128299951553345,-0.0152620365843176,walking
1761225823011483400,-0.0256894630570895,-0.2977455137342214,-0.3816647369146347,0.2874418199062347,-0.4606783390045166,-0.0419455431401729,walking
1761225823021496600,0.0006944668038748,-0.2607353412449359,-0.370571095970273,0.3104608356952667,-0.4867852926254272,-0.0473954379558563,walking
1761225823031510300,0.001388020292297,-0.1925835960388183,-0.4119879789859056,0.3232636451721191,-0.4702686071395874,-0.0488393381237983,walking
1761225823041523500,-0.016017836006172,-0.1326274322479963,-0.4296434626638889,0.3408788442611694,-0.4436993300914764,-0.0525983907282352,walking
1761225823051536600,-0.0612448518944904,-0.1930032827556133,-0.3262017928898334,0.3514866828918457,-0.4406766891479492,-0.0638556480407714,walking
1761225823061549300,-0.093088727661781,-0.3872206174761056,-0.1095230355143547,0.3565328419208526,-0.4540212452411651,-0.0973920375108718,walking
1761225823071563500,-0.17214341354575,-0.6175532216727734,0.1160848782479763,0.3318897485733032,-0.4844036698341369,-0.1466187387704849,walking
1761225823081576400,-0.2588579300004989,-0.8583236332535743,0.4214671704709529,0.2602943778038025,-0.5293179154396057,-0.2248589396476745,walking
1761225823091589400,-0.3144067987430841,-1.079042021408677,0.7100321834057569,0.1452410519123077,-0.5973972678184509,-0.3152193129062652,walking
1761225823101602600,-0.2853335567329079,-1.1535241386801005,0.8469418230175971,0.0017121057026088,-0.6561878323554993,-0.4013339579105377,walking
1761225823111616300,-0.3065038070661947,-1.056671199646592,0.7728489973247051,-0.1605237424373626,-0.7084850072860718,-0.4701811671257019,walking
1761225823121629400,-0.3929704497070982,-0.847649094504118,0.4664250870943069,-0.316020667552948,-0.7354859709739685,-0.5189340710639954,walking
1761225823131642400,-0.4834491775335743,-0.4761830955207347,-0.0997135891616344,-0.4260627031326294,-0.7131041884422302,-0.5417119860649109,walking
1761225823141656300,-0.6269517491370439,-0.1279945117503404,-0.8188789270937442,-0.4768444001674652,-0.6364834308624268,-0.5579854846000671,walking
1761225823151669500,-0.7675405156530439,0.1936310592651367,-1.4286737897247077,-0.4721912145614624,-0.5255067944526672,-0.5737733244895935,walking
1761225823161682400,-0.7979879686258733,0.5139496393352747,-1.8213041572898625,-0.4087651073932647,-0.4116025865077972,-0.5664291381835938,walking
1761225823171695400,-0.7185461831204593,0.737990449911356,-2.036366711640358,-0.3015451729297638,-0.2944909930229187,-0.5469379425048828,walking
1761225823181709600,-0.6299484467349946,0.8259908049255609,-2.0100942062646148,-0.1646597534418106,-0.20149926841259,-0.5182168483734131,walking
1761225823191722500,-0.5305556504929438,0.8266092290848494,-1.7849363743573423,-0.0209997110068798,-0.1341124922037124,-0.4931548237800598,walking
1761225823201735400,-0.4004477267852053,0.807445094409585,-1.384779702940583,0.1126654073596,-0.1194557920098304,-0.4677011370658874,walking
1761225823211748400,-0.1900999259969219,0.8017980284333228,-0.9154431123137472,0.2265293151140213,-0.1213471889495849,-0.4263880848884582,walking
1761225823221762300,0.0301785729035735,0.8633212954103946,-0.461773461896181,0.3152991235256195,-0.107551209628582,-0.3668797314167022,walking
1761225823231775500,0.1630026967674493,0.7961381029754877,0.0222480721652507,0.3748342096805572,-0.1184311658143997,-0.3070020973682403,walking
1761225823241788400,0.2308217028878629,0.6193769299685955,0.5258177717834711,0.3953083157539367,-0.1802540570497512,-0.2601983547210693,walking
1761225823251801600,0.2274326815040782,0.4262859689295292,0.9197849409103394,0.3906282186508178,-0.2485566586256027,-0.2238746732473373,walking
1761225823261815600,0.1646479432238266,0.2665940041452646,1.1176368327409028,0.3572723865509033,-0.3034478425979614,-0.2043180167675018,walking
1761225823271828500,0.026094408862479,0.1016980409771203,1.2244184605926274,0.2991355657577514,-0.3382564187049866,-0.1974512785673141,walking
1761225823281841400,-0.1046734765913337,0.0413105000317096,1.3163134849578142,0.2218674123287201,-0.3598977923393249,-0.1973101198673248,walking
1761225823291855400,-0.2791875647911802,-0.0315127441167831,1.390984987321496,0.1204208955168724,-0.3967396020889282,-0.2137293219566345,walking
1761225823301868500,-0.4294756683489307,-0.0691775811225175,1.2843547506392,0.0240163281559944,-0.4256500601768493,-0.2353344857692718,walking
1761225823311881500,-0.5507401046592741,0.0259849206060171,0.9661913027763366,-0.0604019984602928,-0.427432507276535,-0.2564972639083862,walking
1761225823321894400,-0.6810565565511584,0.2087199073255062,0.6497779134511947,-0.1326216012239456,-0.4030331373214721,-0.2759492397308349,walking
1761225823331908400,-0.7257569182168692,0.3353659270763397,0.2939315084040165,-0.1940592229366302,-0.3471729457378387,-0.2791964709758758,walking
1761225823341921500,-0.6735714614927768,0.4595879345506429,-0.0978676690340042,-0.2405582815408706,-0.2764468491077423,-0.2554642260074615,walking
1761225823351934500,-0.6205062262594699,0.5213707292467356,-0.4388672180831432,-0.2552899122238159,-0.1988814771175384,-0.2228431701660156,walking
1761225823361947600,-0.6424152757287025,0.5565291363894939,-0.7349825002670287,-0.2390201389789581,-0.1317280083894729,-0.1853503882884979,walking
1761225823371961300,-0.7146063594534993,0.5936503680378198,-0.8687403978496789,-0.1789212524890899,-0.0781508237123489,-0.1560418307781219,walking
1761225823381974500,-0.7478199892040341,0.6018845278978348,-0.8904279135227203,-0.0944511219859123,-0.0542955622076988,-0.1284048706293106,walking
1761225823391987500,-0.7468838043324649,0.5807587377607822,-0.8060171074330806,0.0090359132736921,-0.0452329032123088,-0.1007968112826347,walking
1761225823402001400,-0.6868196501225232,0.5184025270909071,-0.6363911931335926,0.1261849105358123,-0.0489080660045146,-0.0682159662246704,walking
1761225823412014600,-0.682649597896263,0.4450421073257923,-0.2755354354918003,0.222593069076538,-0.0600043311715126,-0.0476594492793083,walking
1761225823422027300,-0.6841754192240536,0.3532388528972864,0.2163414882451295,0.2908938229084015,-0.0831935405731201,-0.0293499547988176,walking
1761225823432040400,-0.6276267988543958,0.2269423772364854,0.6720125416129827,0.3240142166614532,-0.1052466407418251,-0.0142535576596856,walking
1761225823442054400,-0.6590285568773746,0.0859615426629781,1.1157856519162654,0.3214570581912994,-0.1318138092756271,-0.0166253708302974,walking
1761225823452067300,-0.6941483855754137,-0.0938742154836654,1.540789764341712,0.2751307785511017,-0.1766747683286667,-0.0335194319486618,walking
1761225823462080500,-0.7169402822937816,-0.2479325582951307,1.8564929595708848,0.1987422555685043,-0.2300144135951995,-0.0514243952929973,walking
1761225823472093400,-0.695964202825725,-0.3536667229205369,2.0252187101602552,0.090848222374916,-0.2703272700309753,-0.0689941421151161,walking
1761225823482107400,-0.7103425645291804,-0.4899544312417507,1.9811504358530043,-0.0402077995240688,-0.2709019780158996,-0.083055630326271,walking
1761225823492120600,-0.7470536079414188,-0.5170353303909302,1.7252713024675843,-0.1524857580661773,-0.2192133963108062,-0.0899149775505065,walking
1761225823502133200,-0.7615200863197445,-0.484644049873948,1.3657985236167909,-0.2392992228269577,-0.1306371837854385,-0.0879391804337501,walking
1761225823512146400,-0.8229664886683226,-0.4515530966550111,0.9738345110058784,-0.283960610628128,-0.0441161356866359,-0.0903149545192718,walking
1761225823522160600,-0.8919720011595637,-0.4882908819437027,0.6121393799304962,-0.2859092652797699,0.0221981760114431,-0.0999492108821868,walking
1761225823532173300,-0.8957481586974113,-0.5161971260011196,0.4145785800009965,-0.2532055974006653,0.0396141298115253,-0.1139570027589798,walking
1761225823542186500,-0.8400792437717318,-0.5425269145220518,0.3685597561478614,-0.2081172168254852,0.0213632229715585,-0.1250767558813095,walking
1761225823552200400,-0.7743928657658398,-0.547405334213376,0.2973860327720642,-0.1545628160238266,-0.0170451626181602,-0.1194489821791648,walking
1761225823562213400,-0.6982074517078697,-0.4401549198061227,0.2166606371968984,-0.0895385444164276,-0.0639061480760574,-0.1054415553808212,walking
1761225823572226600,-0.6571794218793511,-0.3537555702477693,0.1086556050300598,-0.0277990866452455,-0.1037133708596229,-0.0798694342374801,walking
1761225823582239700,-0.6808340729068965,-0.2894131541967392,-0.0635620793282985,0.0401083268225193,-0.1009828299283981,-0.0482965931296348,walking
1761225823592253700,-0.7620328581474721,-0.264071792191267,-0.1967091515362262,0.0949828326702117,-0.0577477291226387,-0.0179937835782766,walking
1761225823602267000,-0.8926897940400987,-0.2575976277410984,-0.2093272255688905,0.1414438188076019,0.0094273136928677,-0.0019287961767986,walking
1761225823612279600,-1.0240329586312171,-0.2852063501566648,-0.1186257949024438,0.1707449555397033,0.0898446813225746,0.0058815027587115,walking
1761225823622292700,-1.0800468876022844,-0.3320440891772508,0.0781388862133026,0.188872292637825,0.135919764637947,-0.0029154508374631,walking
1761225823632306700,-1.081547720619291,-0.3866027778387069,0.2718453488022089,0.1990514099597931,0.1524073034524917,-0.011779686436057,walking
1761225823642319600,-0.9799608849316834,-0.3726671914666891,0.2844219217807054,0.2127648293972015,0.1424718499183654,-0.0184607580304145,walking
1761225823652332800,-0.8628640531621873,-0.3134551240414381,0.1721282525092363,0.2494723200798034,0.1286322176456451,-0.0205523744225502,walking
1761225823662346500,-0.7715227171570063,-0.2569803726255893,0.0042541503131389,0.286342978477478,0.1284806728363037,-0.0204887259751558,walking
1761225823672359700,-0.6675319621328264,-0.2315150919795036,-0.2426934885978698,0.3353430330753326,0.167707547545433,-0.0170453526079654,walking
1761225823682372900,-0.6288423851892352,-0.1752151126086711,-0.4340712159782647,0.3805432617664337,0.2451014071702957,-0.0140032256022095,walking
1761225823692385800,-0.6096845341242849,-0.1376724406778812,-0.426879258647561,0.4000028669834137,0.3507225513458252,-0.0082173962146043,walking
1761225823702399700,-0.496811786323227,-0.2115560075342655,-0.3049468234151601,0.4044697880744934,0.4758146703243255,-0.0027094460092484,walking
1761225823712412700,-0.312324585641548,-0.3583820610046386,-0.1528144802302122,0.3957432210445404,0.5854814648628235,0.0105484295636415,walking
1761225823722425600,-0.1959707177264615,-0.5589496415346861,0.0981219360560178,0.3399428129196167,0.6359273195266724,-0.0012283347314223,walking
1761225823732438800,-0.1384297070522792,-0.8227823642730713,0.3855155671238899,0.2583665549755096,0.6745997071266174,-0.0175573527812957,walking
1761225823742452700,-0.0146172119606286,-1.037674238231778,0.5146832143068313,0.1634360402822494,0.6960059404373169,-0.037694577127695,walking
1761225823752465700,0.1170067971321754,-1.235109365954995,0.7076075866073369,0.0646308958530426,0.6285629868507385,-0.0756496861577034,walking
1761225823762478600,0.3038257652296685,-1.3011129932165144,0.9022416854351758,-0.0405008420348167,0.4684838056564331,-0.1141430139541626,walking
1761225823772492500,0.4311654115341603,-1.0730950957030057,0.7774006692796945,-0.1192668750882148,0.3176216185092926,-0.1453317552804947,walking
1761225823782505700,0.5451585416672751,-0.7927344320118427,0.367734411239624,-0.1738936305046081,0.2731881141662597,-0.15733702480793,walking
1761225823792518700,0.6264228298921137,-0.3800537945866584,0.0125467623621225,-0.2017557024955749,0.2987885475158691,-0.133959025144577,walking
1761225823802531800,0.728178007883951,-0.0417646735399961,-0.0822632726669311,-0.2312776446342468,0.3243761956691742,-0.1032338738441467,walking
1761225823812545800,0.8092603271380067,0.1376549050211906,-0.1897182697355747,-0.2593297660350799,0.3734627366065979,-0.0608830004930496,walking
1761225823822558700,0.8679571385174989,0.2595779879033565,-0.5834066219210624,-0.2447151243686676,0.4569232761859894,-0.0152883538976311,walking
1761225823832571600,0.8122367126002907,0.4457891263008117,-0.949482160037756,-0.2000166624784469,0.5564184784889221,0.0227600075304508,walking
1761225823842585900,0.6536015633925795,0.6681213793933392,-1.065164302703738,-0.1317127048969268,0.6425933241844177,0.0329146422445774,walking
1761225823852598800,0.6682916944589465,0.7803963439643382,-0.9639461541980504,-0.0544798895716667,0.6522597670555115,0.0407957658171653,walking
1761225823862611700,0.9238569395896048,0.8315431783556938,-0.6596808833062648,0.0237544625997543,0.5846905708312988,0.0690074265003204,walking
1761225823872624600,1.210356106035784,0.923286227029562,-0.4224579350739717,0.0825411304831504,0.5114126205444336,0.1270215809345245,walking
1761225823882638600,1.4045000101938845,1.0242886869579553,-0.3175748343199491,0.1373577713966369,0.4707490503787994,0.2086291015148162,walking
1761225823892651800,1.4005913123175502,1.0854144790500402,-0.2627852595120668,0.174656257033348,0.473143607378006,0.2936940789222717,walking
1761225823902664700,1.2816213801525531,1.0532383025884628,-0.0996317560970783,0.1987783759832382,0.5007871985435486,0.3539105355739593,walking
1761225823912678700,1.1196475149761884,0.9224176275014876,0.1822375585913658,0.2045268565416336,0.5054234862327576,0.3852092623710632,walking
1761225823922691800,0.9889558730963616,0.7480956643402576,0.5515466718018055,0.1820945143699646,0.4932525157928467,0.3938600122928619,walking
1761225823932704800,0.9722088095001876,0.5629354963004589,0.8541752814024687,0.145637571811676,0.4759016931056976,0.3905103802680969,walking
1761225823942717700,1.0383159702014175,0.4314245008617639,1.022267410263419,0.0910715460777282,0.4573681950569153,0.3872024714946747,walking
1761225823952731600,1.1418617579370736,0.4243488633871078,1.1020604934245348,0.0326066948473453,0.4592797458171844,0.3964276909828186,walking
1761225823962744800,1.1671059431783857,0.5002414319783449,1.1085925255417823,-0.0242238324135541,0.4579329788684845,0.4036291539669037,walking
1761225823972757800,1.3274562257409095,0.3828647603541612,1.148599541759491,-0.0863993018865585,0.4106791615486145,0.4168482422828674,walking
1761225823982770700,1.4615394097551702,0.3192389681398868,1.1676420958817004,-0.1326957046985626,0.3248209655284881,0.4490692913532257,walking
1761225823992784600,1.473252790033072,0.3599766367197036,1.0246914225399493,-0.1626085788011551,0.2198459357023239,0.4828892648220062,walking
1761225824002797600,1.3517682446986437,0.3597907587587833,0.6951549322694539,-0.1718649268150329,0.1362189501523971,0.504850447177887,walking
1761225824012810800,1.1110104003384709,0.3104109340399503,0.3645329848498105,-0.1735484451055526,0.07802215218544,0.5092032551765442,walking
1761225824022824700,0.7538971902258693,0.2401683540344238,0.0855196441143751,-0.1728624105453491,0.0752641856670379,0.4935353994369507,walking
1761225824032837600,0.4376313196126371,0.1543418359279632,-0.2111994491815567,-0.1630423218011856,0.1168200820684433,0.4594934284687042,walking
1761225824042850800,0.1598981548808515,0.084725278866291,-0.4512473917067051,-0.1504072099924087,0.1932362914085388,0.4077830910682678,walking
1761225824052863500,-0.078932009352371,0.0602016629844903,-0.5835849010974169,-0.1326784193515777,0.2929341793060303,0.3432444036006927,walking
1761225824062877700,-0.1954242993574589,0.0697089115202426,-0.4858388126164674,-0.1200105622410774,0.3622434735298157,0.2727712988853454,walking
1761225824072891000,-0.176804774686601,0.0293652106940746,-0.2958762127310037,-0.1195572912693023,0.3993218541145324,0.2110195308923721,walking
1761225824082903600,-0.0769846929431892,-0.0336567704081535,-0.1775514466017484,-0.1298192590475082,0.4392879605293274,0.1605547666549682,walking
1761225824092917800,0.027180560131371,-0.01031330422163,-0.0471568879723548,-0.1449436247348785,0.4814649522304535,0.1255425065755844,walking
1761225824102930700,0.1634812375320121,0.0837678320109844,0.1760726062208414,-0.1725222617387771,0.4983725845813751,0.1047434732317924,walking
1761225824112943600,0.3381466438360512,0.1667173333764076,0.4071048831194639,-0.199925422668457,0.4830103516578674,0.1047223135828971,walking
1761225824122956800,0.5192206020081416,0.2008884830474853,0.5603425571978092,-0.2152178287506103,0.4539805650711059,0.1256803274154663,walking
1761225824132970800,0.6168569099716842,0.1891062753170728,0.5776274539977312,-0.2126714587211609,0.4184876084327698,0.152979165315628,walking
1761225824142983700,0.5891012898987159,0.1455044494777918,0.6246990017741918,-0.2010904252529144,0.3837738335132599,0.1725059896707534,walking
1761225824152996900,0.480690343812108,0.0734931062340736,0.6000660802990198,-0.1806131899356842,0.3561315536499023,0.1830318421125412,walking
1761225824163009500,0.3494830805603414,-0.031432664617896,0.6552385169446467,-0.1634571105241775,0.3184440732002258,0.17497418820858,walking
1761225824173023700,0.2560555493982508,-0.1490185950785875,0.7420692436575889,-0.1559150665998459,0.2585339248180389,0.1658683866262436,walking
1761225824183037000,0.2103516367131844,-0.2610872234225272,0.8009276753395795,-0.1587129831314087,0.1776249557733535,0.1537462174892425,walking
1761225824193049600,0.1051970986066386,-0.3443032667696475,0.8772270711660385,-0.1817170828580856,0.0815812200307846,0.1369831711053848,walking
1761225824203063800,0.0070050199238583,-0.3591238192826509,0.812474905270338,-0.2069092541933059,0.0186640415340662,0.1165356859564781,walking
1761225824213076500,-0.0594995060645043,-0.2536643799453973,0.5310165094703435,-0.217709943652153,0.0110730361193418,0.1123884692788124,walking
1761225824223089700,-0.0957155325014144,-0.0672977587252855,0.3292027282714843,-0.2203933447599411,0.0203520227223634,0.1182964295148849,walking
1761225824233102800,-0.0963410074559971,0.0125134446144104,0.1639981375455856,-0.2109386324882507,0.0468701384961605,0.1256970167160034,walking
1761225824243116500,-0.0218960803898051,0.0271586405605077,0.046839492586255,-0.1858567148447036,0.0696995556354522,0.1357999742031097,walking
1761225824253129700,0.0395110859269276,0.0305447758674621,0.0360194078862667,-0.1419384777545929,0.0532580390572547,0.1576768457889557,walking
1761225824263142700,0.0878871404306963,-0.0033013796329498,0.0228495451897382,-0.0837039351463317,0.013471744954586,0.1794181019067764,walking
1761225824273156600,0.0836312365518882,-0.0734586194425821,0.053978842946887,-0.0167893879115581,-0.0526242516934871,0.1891547590494156,walking
1761225824283169800,-0.0054857379347085,-0.1899281130939722,0.1568295610904693,0.0391726829111576,-0.1480407863855362,0.1821399927139282,walking
1761225824293182700,-0.0997911113772541,-0.2953185788482427,0.1864309186279773,0.0836934670805931,-0.2313647121191024,0.1609933972358703,walking
1761225824303195600,-0.1683976876787841,-0.3725567168295383,0.1274129124701023,0.1056222021579742,-0.2710444927215576,0.1351703256368637,walking
1761225824313209900,-0.2521646063743159,-0.3923813612401485,0.1101964047312736,0.1034731641411781,-0.2924069762229919,0.1050934940576553,walking
1761225824323222500,-0.3279571486571803,-0.3886035962671041,0.1563543447941541,0.0739126056432724,-0.2999482452869415,0.0783170089125633,walking
1761225824333235700,-0.3493294243685901,-0.4225385990947484,0.2079506765186786,0.0300626512616872,-0.3148487210273742,0.0446502491831779,walking
1761225824343250000,-0.306103610501159,-0.4474667041242122,0.2395318096965551,-0.0174161829054355,-0.3480543494224548,0.017591468989849,walking
1761225824353262600,-0.2101773030595853,-0.3939256680727004,0.1672527554273605,-0.0542611293494701,-0.3651131987571716,0.0025710361078381,walking
1761225824363275800,-0.122444732136093,-0.2339864505290985,0.0600678074717521,-0.0682051703333854,-0.3813147842884063,0.0018850058550015,walking
1761225824373288700,-0.0687658037175424,-0.163581373438239,-0.1841992140531539,-0.0482537038624286,-0.389756441116333,0.0115308184176683,walking
1761225824383302700,-0.05245082966201,-0.1505360139042139,-0.562183801150322,0.0257278457283973,-0.3780670166015625,0.022491056472063,walking
1761225824393315800,-0.0649427291648928,-0.1554138490736484,-0.7714835541903973,0.1378239095211029,-0.381747305393219,0.025015577673912,walking
1761225824403328800,-0.0968888231976423,-0.2295966911375522,-0.6212228500962257,0.2402685284614563,-0.4304820895195007,0.0205039158463478,walking
1761225824413342700,-0.0441963804992148,-0.3543500290095805,-0.3022065847963094,0.3188664019107818,-0.5212252140045166,0.0226215664297342,walking
1761225824423356000,0.0258960002135485,-0.5381430003494024,0.0202303026020526,0.3523479402065277,-0.646938145160675,0.010907388292253,walking
1761225824433368600,0.0212198479289421,-0.7854366762191056,0.3332248233944177,0.3293660879135132,-0.7680424451828003,-0.0194395370781421,walking
1761225824443381800,-0.1362037380984984,-0.9296966785937548,0.5326087470978498,0.2489250153303146,-0.8500257134437561,-0.0500206165015697,walking
1761225824453395700,-0.3422431559020653,-1.0513795229792595,0.5602507872611284,0.1219962984323501,-0.9021121263504028,-0.0901315808296203,walking
1761225824463408600,-0.4962384068820625,-1.2344091087311506,0.49077626901865,-0.0307956356555223,-0.9150561094284058,-0.147951990365982,walking
1761225824473421800,-0.6484972259908914,-1.171796292951703,0.3374748820543289,-0.1984897702932357,-0.9193702340126038,-0.2052963972091674,walking
1761225824483435500,-0.8401456600714474,-1.062304821619391,0.0655126288741827,-0.3564974963665008,-0.9061463475227356,-0.2621399462223053,walking
1761225824493448700,-0.8968211216911673,-0.8742746511012315,-0.4390080878585576,-0.4468305706977844,-0.860811710357666,-0.3001011312007904,walking
1761225824503461600,-0.8485837450057268,-0.6262754573106766,-1.0612456679552793,-0.469619482755661,-0.7734754681587219,-0.3339629471302032,walking
1761225824513474800,-0.8702120778374374,-0.3456026589304208,-1.6055921991199251,-0.4269033968448639,-0.6728869080543518,-0.3571601212024688,walking
1761225824523488800,-0.9398441977944224,-0.0568026681959629,-1.9350269825816155,-0.3396808505058288,-0.5750399827957153,-0.367419958114624,walking
1761225824533501700,-0.8664043561175465,0.0825911894470453,-2.086469005414844,-0.2229007482528686,-0.4968091547489166,-0.3684339225292206,walking
1761225824543514600,-0.717200686795637,0.1609434261500835,-2.084363557568192,-0.0793124213814735,-0.4239085912704468,-0.353568434715271,walking
1761225824553528800,-0.5855095855496824,0.2023445270746946,-1.897691815921664,0.0760714262723922,-0.367205947637558,-0.3412401974201202,walking
1761225824563541800,-0.5118097777623682,0.2375970422416925,-1.4493454063534736,0.2215295433998108,-0.3577802181243896,-0.3415067791938782,walking
1761225824573554700,-0.4626033733816817,0.2370838320225477,-0.9195195679724216,0.3322638571262359,-0.3648730814456939,-0.3473880589008331,walking
1761225824583568100,-0.4334670395400375,0.2270575280487537,-0.4918249012887478,0.4171726107597351,-0.3597781956195831,-0.3519378006458282,walking
1761225824593582000,-0.3732445164306089,0.2000689833581447,-0.0927601167619228,0.4613781273365021,-0.3530337214469909,-0.3658798336982727,walking
1761225824603595300,-0.3809473093602806,0.149131407803297,0.3267658565133809,0.4659982025623321,-0.3609896302223205,-0.3940635323524475,walking
1761225824613608200,-0.3529939016928896,0.142126497477293,0.6973708547532558,0.4348220229148865,-0.3684942126274109,-0.4195310175418854,walking
1761225824623622100,-0.3022636487457901,0.1138672021985054,1.0167442629277703,0.3681809604167938,-0.3799242377281189,-0.4437764585018158,walking
1761225824633635300,-0.3152900843836367,0.0670657035350799,1.2054191610902547,0.2656154334545135,-0.3843485414981842,-0.4728616178035736,walking
1761225824643648300,-0.3485538368862122,0.0278746798753738,1.2988251745402812,0.1368878483772277,-0.3580515086650848,-0.5110674500465393,walking
1761225824653661200,-0.347522374946624,0.0755675744205713,1.2837334038704633,-0.0093226265162229,-0.3023474812507629,-0.5447870492935181,walking
1761225824663675400,-0.3043719461366534,0.2199859822273254,1.2289309695810078,-0.1381027102470398,-0.2452485114336013,-0.5639426708221436,walking
1761225824673688000,-0.2486946652414277,0.348424146091938,1.1192980439513922,-0.2513225674629211,-0.2166699022054672,-0.5703073143959045,walking
1761225824683701200,-0.1338800626575946,0.4703150802701711,0.9001660482048988,-0.3248575031757355,-0.2128386795520782,-0.555092453956604,walking
1761225824693715200,-0.0161595094991847,0.6400163978934288,0.6108896721303463,-0.3566052615642547,-0.2267054468393325,-0.520373523235321,walking
1761225824703728000,-0.0456873999416828,0.660368865570426,0.3507780157417058,-0.3572915494441986,-0.2359205037355423,-0.487494945526123,walking
1761225824713741300,-0.07763893733453,0.662834378901124,0.1473953777909278,-0.337089866399765,-0.2472872585058212,-0.469834953546524,walking
1761225824723754200,-0.099599424730055,0.7318669985949993,-0.0411427422493696,-0.3052991926670074,-0.2539558112621307,-0.442041665315628,walking
1761225824733768200,-0.0452143025372177,0.8575912273257971,-0.250054372754693,-0.2573722898960113,-0.2194978594779968,-0.3863507509231567,walking
1761225824743781000,-0.028189773706533,0.9715484458953142,-0.4493874430537223,-0.1887005716562271,-0.1477869302034378,-0.3194007575511932,walking
1761225824753794300,-0.0408922380870208,0.996849475890398,-0.5668371799141169,-0.1120307222008705,-0.0517356507480144,-0.2496076375246048,walking
1761225824763808300,-0.0187698381280526,0.9671195235371588,-0.4305559013336896,-0.0318914130330085,0.0217071399092674,-0.1850371658802032,walking
1761225824773821200,0.0025910759391263,0.830434924852848,-0.1212450374901294,0.0330748781561851,0.0592275150120258,-0.1357297301292419,walking
1761225824783834000,0.0436068673405796,0.5658095904320478,0.3036298955976962,0.0788189321756362,0.0547310337424278,-0.0912133902311325,walking
1761225824793847000,0.0523575253553688,0.3167565036743879,0.698334731349349,0.1089660674333572,0.007086050696671,-0.0572524294257164,walking
1761225824803861200,0.0332161870338022,0.103429394814372,0.96396544342041,0.124288834631443,-0.0557102225720882,-0.0426013171672821,walking
1761225824813874200,-0.0535232811991125,-0.0196223998367786,1.1648428205519914,0.1193683743476867,-0.1145411655306816,-0.0474623329937458,walking
1761225824823887000,-0.1649131700312718,-0.118748544499278,1.2874410262167453,0.097009003162384,-0.1526382118463516,-0.0558933690190315,walking
1761225824833901000,-0.1908400768397375,-0.1463414848238229,1.372744981753826,0.0499410964548587,-0.1786555796861648,-0.0573304630815982,walking
1761225824843914200,-0.1642182465696707,-0.179739896556735,1.4236439788639546,-0.0191940311342477,-0.1840700507164001,-0.0438705794513225,walking
1761225824853927200,-0.1721152103645727,-0.1649801343202591,1.346238083100319,-0.0935333371162414,-0.1555148363113403,-0.0260745212435722,walking
1761225824863940400,-0.2313569422757252,-0.1468348212987184,1.1567150436758995,-0.1556023061275482,-0.1040737554430961,-0.0076731424778699,walking
1761225824873954300,-0.2743251463865861,-0.1394517253100872,0.9316554114460944,-0.2011099308729171,-0.0561840087175369,0.0101247318089008,walking
1761225824883967200,-0.371244830513373,-0.1290945819467306,0.6370312446027994,-0.2247367054224014,0.026939108967781,0.013782849535346,walking
1761225824893980200,-0.4629477663725614,-0.0990975030899047,0.4122644578397273,-0.220464825630188,0.1083476915955543,0.0266914740204811,walking
1761225824903994400,-0.4261127677870914,-0.1443704770117998,0.3350596376061439,-0.2008107006549835,0.153394803404808,0.04283182695508,walking
1761225824914007300,-0.3589853606600314,-0.1937725135624408,0.3531915066242218,-0.1600569039583206,0.1612884253263473,0.0625342056155204,walking
1761225824924020200,-0.3745333871973678,-0.2663262931197881,0.3259410961270332,-0.1132084354758262,0.1705679446458816,0.0723458305001258,walking
1761225824934033200,-0.4050486447094008,-0.3138432465761899,0.3587579085797071,-0.0607389844954013,0.1659111082553863,0.0704013854265213,walking
1761225824944047000,-0.4321609619101509,-0.3539250815957784,0.4834077860772609,-0.0224182251840829,0.1387037187814712,0.0743931978940963,walking
1761225824954060300,-0.4086310697734355,-0.4142179299950599,0.598183919814229,-0.0018178949831053,0.1002485007047653,0.0808189213275909,walking
1761225824964073200,-0.3660465677505359,-0.4719552486926316,0.4850117141425609,0.0191712770611047,0.0881028845906257,0.1055186688899993,walking
1761225824974087200,-0.420412583384104,-0.4531400735855102,0.1259855100154876,0.0512135364115238,0.1447290331125259,0.1260855346918106,walking
1761225824984100000,-0.535299958943203,-0.3914531404793262,-0.1152484274238347,0.0854553952813148,0.2216429859399795,0.1383387297391891,walking
1761225824994113300,-0.6223747966103256,-0.3889928878456354,-0.0941390038996934,0.1088766828179359,0.2729463279247284,0.1346314549446106,walking
1761225825004127200,-0.6555480212852358,-0.4848842883706092,-0.0052817397952079,0.1187897697091102,0.2930268347263336,0.1258986890316009,walking
1761225825014140200,-0.6898706351909786,-0.5591057088792324,0.035705519631505,0.117825374007225,0.3163690268993377,0.1144518628716468,walking
1761225825024153300,-0.6934377530880272,-0.5259364297270774,-0.0174158297032117,0.1256132572889328,0.3563316166400909,0.1070123165845871,walking
1761225825034166000,-0.6360670026805252,-0.4382990628063678,-0.1700292344033718,0.1454893499612808,0.4278945624828338,0.1017633825540542,walking
1761225825044180200,-0.5370476063281298,-0.3037111441403627,-0.2549573423653841,0.1756059676408767,0.5041680335998535,0.1023263782262802,walking
1761225825054193200,-0.3375860508112236,-0.2430827801764011,-0.2076397108733653,0.1963299065828323,0.5623085498809814,0.1147893890738487,walking
1761225825064206000,-0.079293116016034,-0.2452349897742271,-0.1242775370538234,0.2185342758893966,0.6368719935417175,0.14068304002285,walking
1761225825074220300,0.1171076819570735,-0.3504395775675773,-0.1327764853298664,0.2313595116138458,0.7567367553710938,0.1785319745540619,walking
1761225825084233200,0.2695565254789777,-0.4086351614266634,0.0717775344878435,0.2218293845653534,0.8529040813446045,0.2009137123823166,walking
1761225825094246100,0.4120584138736128,-0.5668056157320738,0.5043436066001653,0.1875220686197281,0.8616495132446289,0.2098742127418518,walking
1761225825104259300,0.7131673396263272,-0.7669605238080024,0.8850731084913015,0.1472691893577575,0.7835538983345032,0.2372626960277557,walking
1761225825114273300,1.0693403462793678,-0.8828893347114324,1.17430096924901,0.0881123691797256,0.630792498588562,0.2852063477039337,walking
1761225825124286200,1.231207974602282,-0.9488128824740648,1.4222265132814644,0.004877139814198,0.3831595182418823,0.345929890871048,walking
1761225825134299400,1.1512479373764246,-0.9756687406957149,1.5184341401487589,-0.1116249710321426,0.0843557864427566,0.4012487828731537,walking
1761225825144313000,0.964501230797544,-0.9836924726754428,1.2628390844017263,-0.2264444977045059,-0.1998125612735748,0.4316112399101257,walking
1761225825154326300,0.5942723358610644,-0.845392255488038,0.4958651165902614,-0.3372957408428192,-0.365713357925415,0.4461393356323242,walking
1761225825164339200,0.0747488510493654,-0.5201753819823265,-0.6432441277682781,-0.4079539179801941,-0.3464371263980865,0.445190966129303,walking
1761225825174352100,-0.4767516161236911,-0.0730342565506696,-1.7993828328609465,-0.4120891690254211,-0.1479497849941253,0.427959680557251,walking
1761225825184366300,-0.8788424704734236,0.3581915068686008,-2.713674437052011,-0.3659656345844269,0.1855315119028091,0.3899182975292206,walking
1761225825194379000,-0.999383597477898,0.6210615220546722,-3.185904411032796,-0.2718595862388611,0.5438496470451355,0.3682552576065063,walking
1761225825204392200,-0.910443039004132,0.8315618830561637,-3.3140830471783875,-0.1166673451662063,0.8755261301994324,0.3651883602142334,walking
1761225825214406100,-0.6634122518543154,0.9197732504725455,-2.925191866141557,0.0731327906250953,1.0856961011886597,0.3556475043296814,walking
1761225825224419000,-0.2712839155271649,0.8263830191135406,-2.0765619439065457,0.2696456015110016,1.103073239326477,0.3469243347644806,walking
1761225825234432300,0.2207187169486656,0.6510001487225294,-1.0378753137618302,0.4457518756389618,0.9509662985801696,0.3447741866111755,walking
1761225825244445200,0.6426869322769343,0.5365747281193733,-0.1237871231883764,0.5694048404693604,0.7518883347511292,0.3617110848426819,walking
1761225825254459100,0.945269949170202,0.3756026603966951,0.5578957485675812,0.6369158625602722,0.5680585503578186,0.3901854753494262,walking
1761225825264472300,1.153248171282932,0.2157552127897739,1.1688929727256296,0.645751953125,0.4115844964981079,0.4186253845691681,walking
1761225825274485000,1.2425715185292063,0.006064999127388,1.6645032377719875,0.5867679715156555,0.2566991150379181,0.4360385537147522,walking
1761225825284499200,1.2524234888494017,-0.2138654535204172,2.1165309662014247,0.4634417593479156,0.0800159573554992,0.4425473213195801,walking
1761225825294512400,1.206599383850768,-0.3975181396067142,2.2632383617281917,0.3102811276912689,-0.0771276131272316,0.4366712868213653,walking
1761225825304525000,1.0920694068945944,-0.4464829537838697,2.1580454643726346,0.1361178755760193,-0.187912717461586,0.4169937372207641,walking
1761225825314539300,0.8254366051089018,-0.4057727577328682,1.9244635029911996,-0.0608666241168975,-0.2587049007415771,0.3882810771465301,walking
1761225825324552200,0.5146056190259755,-0.2859095299899578,1.5720008951634168,-0.248649314045906,-0.2920130491256714,0.3533244132995605,walking
1761225825334565000,0.2567527196158655,-0.1311380704730749,1.0124158783346413,-0.4046820104122162,-0.2486944198608398,0.3022933602333069,walking
1761225825344578300,0.0431469216786324,0.0266290637284517,0.3153752784490585,-0.5176072120666504,-0.1507425457239151,0.2489454299211502,walking
1761225825354592000,-0.0805062089996878,0.2405582301348447,-0.4394254364877939,-0.5594357848167419,0.0022867261432111,0.2007864862680435,walking
1761225825364605200,-0.133028825256275,0.4913111065477132,-1.1736661784768103,-0.5242077708244324,0.1941989064216613,0.169215515255928,walking
1761225825374618400,-0.1426248389208689,0.751170249480009,-1.7463854021668432,-0.4008685648441314,0.4076471030712127,0.1467202454805374,walking
1761225825384632000,-0.080364188446803,0.8792319812476634,-1.896884591192007,-0.229559913277626,0.5581761598587036,0.1261787563562393,walking
1761225825394645200,0.0590789425648748,0.8477180680871009,-1.52505268150568,-0.0512551069259643,0.5944323539733887,0.1028043180704116,walking
1761225825404658400,0.3213373286586254,0.7033201185464859,-0.8431739949166774,0.1112768128514289,0.5214095711708069,0.0821965113282203,walking
1761225825414671000,0.6219711842454969,0.6076484982520342,-0.1910240916371345,0.2379128038883209,0.3937522172927856,0.0860242322087287,walking
1761225825424685300,0.8735067354686558,0.5587649326175451,0.3161357414275407,0.3183866143226623,0.2635795772075653,0.1122116222977638,walking
1761225825434698000,0.963862129176408,0.5197375750869512,0.6880746186196803,0.3429031670093536,0.1536813676357269,0.1488190293312072,walking
1761225825444711200,0.9912846813701092,0.4365472507029772,0.9866565831780432,0.3290323615074157,0.09116180986166,0.178573727607727,walking
1761225825454725400,0.865657994729653,0.3452034304797649,1.2794734083384274,0.2638892233371734,0.0459011271595954,0.1892964243888855,walking
1761225825464738000,0.713070601253584,0.2231640277415514,1.532135917764902,0.1589489579200744,0.0033544637262821,0.1866119652986526,walking
1761225825474751200,0.6224785492457449,0.1221948855608701,1.6104478224575518,0.0321805700659751,-0.0271433014422655,0.1831566989421844,walking
1761225825484765200,0.5750396659942344,0.0881178439140319,1.510725465467572,-0.086976982653141,-0.0284698195755481,0.1817971616983413,walking
1761225825494778000,0.5091297448981553,0.1146855328440666,1.1915092936813831,-0.1867173165082931,0.0048978328704833,0.1921309530735016,walking
1761225825504791300,0.3846089371403679,0.1634299822688102,0.8519348089993,-0.2525743842124939,0.0477417036890983,0.1984445005655288,walking
1761225825514804200,0.2417842647984623,0.1795931815624237,0.590585719770193,-0.2724831402301788,0.0706501454114914,0.1855576187372207,walking
1761225825524818200,0.1434525219166651,0.1568459277033805,0.441629668533802,-0.2578546404838562,0.0524738058447837,0.161275714635849,walking
1761225825534831400,0.1388180122501216,0.1471323429405689,0.339199806150794,-0.2304178476333618,-0.007503836415708,0.1379758715629577,walking
1761225825544844000,0.155198836349789,0.1123947915583848,0.1443453425705432,-0.1753852218389511,-0.0511554405093193,0.1179377138614654,walking
1761225825554857200,0.1209799385468475,0.1332926181584596,-0.1529296310424804,-0.0998106226325035,-0.0488075241446495,0.1068199574947357,walking
1761225825564871400,0.0452856872729957,0.175454182061553,-0.2417553309649228,-0.0369501635432243,-0.0390651486814022,0.0826459154486656,walking
1761225825574884000,-0.0081417871351353,0.1431178466022014,-0.1544178237736225,0.0161219406872987,-0.0479951500892639,0.0634351372718811,walking
1761225825584896800,0.0507777910164091,0.0423439347326755,-0.0233387900114059,0.0532581247389316,-0.0668026581406593,0.0526219084858894,walking
1761225825594910700,0.129344939978607,-0.14740999083817,0.0998199721455573,0.0675113573670387,-0.0711131021380424,0.0481201447546482,walking
1761225825604923600,0.1378030630539171,-0.3021247517317533,0.3132031951069832,0.0615474805235862,-0.0831433981657028,0.0349646620452404,walking
1761225825614936600,0.1685095505554228,-0.3807791862517595,0.5258195253491401,0.0367091409862041,-0.0996240973472595,0.0218251720070838,walking
1761225825624950500,0.1648665544105693,-0.4257523004442453,0.5918798512339591,0.0069464542903006,-0.1048505529761314,0.0036549577489495,walking
1761225825634963700,0.1699764082375914,-0.4510375483483075,0.6374287194877862,-0.0226241070777177,-0.1233329251408577,-0.0229434259235858,walking
1761225825644976600,0.1529704745095223,-0.4715232870161533,0.6342781465023756,-0.0445416569709777,-0.1530412882566452,-0.052688006311655,walking
1761225825654989800,0.0592497964865993,-0.5208803153812885,0.5289852959036827,-0.053980428725481,-0.1935811340808868,-0.090222381055355,walking
1761225825665003800,0.0300384520468302,-0.5665525177538394,0.334542920255661,-0.0499017983675003,-0.2275201827287674,-0.1358444690704345,walking
1761225825675016700,0.0805230414034798,-0.5410112492620944,0.075657590791583,-0.0255897268652915,-0.2820911407470703,-0.1833519786596298,walking
1761225825685029600,0.1356201477905735,-0.4428080646634101,-0.1942325322896242,0.0202435422688722,-0.3124841749668121,-0.2070882022380828,walking
1761225825695043800,0.2501783279279246,-0.3247819892197847,-0.4293395112812518,0.068774327635765,-0.33315110206604,-0.2136068195104599,walking
1761225825705056800,0.4141575050447136,-0.2413198621571063,-0.4597533542454242,0.1173040494322776,-0.3782131373882293,-0.2006076574325561,walking
1761225825715069700,0.5049218448795378,-0.2386614566028118,-0.3069716072410345,0.1338495910167694,-0.4689813256263733,-0.1676589250564575,walking
1761225825725082600,0.4785969151968136,-0.3063753949135542,-0.119295072466135,0.1322447806596756,-0.5902707576751709,-0.1441940814256668,walking
1761225825735096600,0.3496529572345316,-0.4837877253055572,-0.0405430227905511,0.1020560562610626,-0.7014751434326172,-0.144817441701889,walking
1761225825745109800,0.0563067013725638,-0.7432406255245209,-0.0451110613584518,0.0390099808573722,-0.8021767139434814,-0.1772989481687545,walking
1761225825755122700,-0.3523159293660894,-0.9265133723825216,-0.1464735867708921,-0.0536368638277053,-0.8852975964546204,-0.2386270761489868,walking
1761225825765136600,-0.7621442826326936,-0.9970862072557212,-0.3937760304689407,-0.1655010879039764,-0.9019804000854492,-0.324121743440628,walking
1761225825775149600,-1.1075148133076729,-0.9495686692774296,-0.7212339608997106,-0.2751277387142181,-0.8742859959602356,-0.4188351035118103,walking
1761225825785162800,-1.2686210288040338,-0.7605635162472725,-1.1349334199786183,-0.3679602146148681,-0.7763413190841675,-0.5032298564910889,walking
1761225825795176700,-1.3135391979388893,-0.5796311950355768,-1.5370733741670846,-0.4393520951271057,-0.6368641257286072,-0.5832197666168213,walking
1761225825805189600,-1.3020840302057564,-0.3397673769056797,-1.8390502418607475,-0.4708434343338012,-0.4723660349845886,-0.6225163340568542,walking
1761225825815202800,-1.1412379269503057,0.0789314978957176,-2.1860727044612167,-0.4392911195755005,-0.2662250697612762,-0.6184568405151367,walking
1761225825825215700,-1.010345282605663,0.5358598578482866,-2.426450317332149,-0.3343583047389984,-0.0544771365821361,-0.5823694467544556,walking
1761225825835229700,-0.7401207399383187,0.7906295686870813,-2.284530740603804,-0.1953583806753158,0.0609192587435245,-0.5326233506202698,walking
1761225825845242600,-0.4202858882645144,0.7748609216690063,-1.8444307658553123,-0.0275659058243036,0.0528781116008758,-0.4794658422470093,walking
1761225825855255600,-0.1983255737569183,0.694186964020133,-1.3421598738759757,0.1376263350248336,-0.0219670869410038,-0.4376890659332275,walking
1761225825865269800,-0.1173101822592318,0.6537222671627998,-0.9231336668163538,0.2898880243301391,-0.1013828217983245,-0.3956923484802246,walking
1761225825875282700,-0.1329709849886596,0.6386380952775478,-0.4582032021939754,0.4120879173278808,-0.170082688331604,-0.367699384689331,walking
1761225825885295600,-0.1602725046185776,0.5480535689890385,0.0310562325209379,0.492138534784317,-0.2290171086788177,-0.3542967438697815,walking
1761225825895308800,-0.1630939552474767,0.3923205709636211,0.468187420591712,0.5133978724479675,-0.2805616855621338,-0.3500805199146271,walking
1761225825905322800,-0.1910981797866523,0.2796738504707813,0.8596715407311916,0.4776137471199035,-0.3132117688655853,-0.3568294942378998,walking
1761225825915335700,-0.2896339208079502,0.1839157209366559,1.197376724410057,0.3944567143917084,-0.3273435235023498,-0.3639925122261047,walking
1761225825925348900,-0.3853148203874006,0.074650459575653,1.4582225402921438,0.2744986116886139,-0.3268724083900451,-0.3885798752307892,walking
1761225825935362800,-0.440752483840473,0.0412257443577051,1.5604489890575408,0.1288657784461975,-0.304423838853836,-0.4150208234786987,walking
1761225825945375700,-0.4027200921639799,0.082796941152215,1.5536130055576562,-0.030886335298419,-0.2612060606479645,-0.4291725754737854,walking
1761225825955388700,-0.334935244041495,0.1460889713674783,1.4067355141609907,-0.1811732798814773,-0.2112761884927749,-0.4223596751689911,walking
1761225825965401600,-0.247814484873414,0.2545131057292222,1.0808265667378902,-0.297203779220581,-0.1636721938848495,-0.408383697271347,walking
1761225825975415800,-0.2055432865833863,0.3951514104753732,0.7220014381408691,-0.3592614233493805,-0.1452531516551971,-0.3912399709224701,walking
1761225825985428700,-0.1984297282511368,0.5478635993748903,0.4136643877655267,-0.383092999458313,-0.1542535722255706,-0.3697671592235565,walking
1761225825995441700,-0.1839389008828438,0.659744011670351,0.0811655405580997,-0.3598208725452423,-0.1750192493200302,-0.3386331498622894,walking
1761225826005455600,-0.2303372803717851,0.6943032838761806,-0.2996890490174293,-0.306752860546112,-0.1736312210559845,-0.3054304718971252,walking
1761225826015468500,-0.212222289423272,0.6571592558741569,-0.5970411795198917,-0.2262712270021438,-0.1481583714485168,-0.2768580019474029,walking
1761225826025481700,-0.1261608300497755,0.7187801380068063,-0.8039882319539785,-0.1271356046199798,-0.098963938653469,-0.2310066074132919,walking
1761225826035495700,-0.0366777256645262,0.8161579776972532,-0.7987842335700989,-0.0191794596612453,-0.0441696941852569,-0.1766014844179153,walking
1761225826045508600,0.0427002373570576,0.7893553109675645,-0.6072983696401119,0.0830065608024597,0.0063597904518246,-0.1117271557450294,walking
1761225826055521800,0.1225722857722081,0.6650543930381536,-0.2703945654720068,0.168159082531929,0.0402754284441471,-0.0565181970596313,walking
1761225826065534500,0.1306398934262804,0.5085632701218128,0.1696229916900396,0.2242098301649093,0.0416434928774833,-0.0050904247909784,walking
1761225826075548700,0.1498802716755308,0.3150549604535103,0.6806728179305791,0.2494963556528091,0.0111125009134411,0.0297080669552087,walking
1761225826085561900,0.0962660790562629,0.0892237593293189,1.1529495536625385,0.2376863062381744,-0.0516464859247207,0.0441125743091106,walking
1761225826095574500,0.0220571709693409,-0.139416653996706,1.5332704747527837,0.1983631998300552,-0.1252998858690261,0.0473896712064743,walking
1761225826105588700,-0.0179290399223566,-0.3201215961933136,1.7326204961866138,0.1339631676673889,-0.1771255284547805,0.0373799130320549,walking
1761225826115601700,-0.0662534190378151,-0.439869088602066,1.785266044703126,0.0510082989931106,-0.2079362273216247,0.0173587221652269,walking
1761225826125614600,-0.1831209903623908,-0.5012514858037233,1.768338875299692,-0.0497031286358833,-0.2071660310029983,-0.0033172606490552,walking
1761225826135627800,-0.2558957922592759,-0.4774585222840309,1.5759171918243169,-0.1416666656732559,-0.1725977212190628,-0.0156227406114339,walking
1761225826145641700,-0.3284611161239445,-0.363586643910408,1.2899644072145222,-0.2105906158685684,-0.1215507835149765,-0.0173010639846324,walking
1761225826155654700,-0.3931847500449046,-0.2570189510703086,0.9375538218349218,-0.2527425587177276,-0.0531548485159873,-0.0180950481444597,walking
1761225826165667800,-0.4706753284173086,-0.1620686307877302,0.5905804590731859,-0.2602082192897796,0.0029741981998085,-0.0155852837488055,walking
1761225826175681500,-0.5531606828697025,-0.0545160185635089,0.3247463333845138,-0.2326410561800003,0.0416985973715782,-0.0148666687309741,walking
1761225826185694700,-0.6090699093572794,0.0297089095652103,0.1272948390483856,-0.1748621761798858,0.0699872300028801,-0.0104721868410706,walking
1761225826195708000,-0.5883799533542245,0.1061181955069303,0.051699792098999,-0.1005494743585586,0.0775903686881065,-0.0002931628841906,walking
1761225826205720600,-0.5818751380374655,0.1584206296741962,0.1624994234204292,-0.0347888357937336,0.0631376653909683,0.0153622291982173,walking
1761225826215734800,-0.5632779165299608,0.1356359664142131,0.3402536991178989,0.0132381338626146,0.0342713147401809,0.0322819501161575,walking
1761225826225747700,-0.5181685356719419,0.0413987628370523,0.4925882868766784,0.0365876629948616,0.0329599753022193,0.0533169284462928,walking
1761225826235760600,-0.5060855548966676,-0.031471827584505,0.522731496205926,0.0365250408649444,0.0814881473779678,0.0773123726248741,walking
1761225826245774800,-0.5564884390529244,-0.0970668740451335,0.5243681574970483,0.0197934675961732,0.1567839682102203,0.0984144583344459,walking
1761225826255787500,-0.6386015626594423,-0.2136322292864322,0.6483142706394195,-0.0107378493994474,0.2263856083154678,0.1069766655564308,walking
1761225826265800700,-0.6114124538954347,-0.3685802144140004,0.757958886706829,-0.0477842837572097,0.2748980224132538,0.1131687760353088,walking
1761225826275814700,-0.4759440991330891,-0.450514401257038,0.865690947151184,-0.0727417320013046,0.2727156579494476,0.1242197677493095,walking
1761225826285827600,-0.3418921139746904,-0.5022083481371402,0.977837316906452,-0.097150407731533,0.222115084528923,0.1423817276954651,walking
1761225826295840800,-0.2493480876488611,-0.5530278502702712,0.9148919081717728,-0.1052145510911941,0.1541894376277923,0.1574938893318176,walking
1761225826305853700,-0.2075884008112363,-0.5298661703914403,0.6623749446958304,-0.0930108800530433,0.1026106774806976,0.1905035078525543,walking
1761225826315867600,-0.253700638568867,-0.4732540563315153,0.2745429173231125,-0.0707514807581901,0.0716098919510841,0.225245252251625,walking
1761225826325880800,-0.36437198560182,-0.4495207140445709,-0.1161930147975683,-0.0371660888195037,0.0794417187571525,0.2508766055107116,walking
1761225826335893500,-0.5168931454412639,-0.4404442581415176,-0.5676105023741722,0.0243744663894176,0.127013012766838,0.273657888174057,walking
1761225826345907700,-0.751737893300131,-0.4578320307940244,-0.992933179229498,0.0965551808476448,0.2480038851499557,0.2675533890724182,walking
1761225826355921000,-1.0109731321804225,-0.539971384820342,-1.082061661490798,0.1667989790439605,0.3686951696872711,0.236951544880867,walking
1761225826365933600,-1.1178200072880833,-0.6115180331617593,-0.7649427542448043,0.2048654109239578,0.428740918636322,0.1865253895521164,walking
1761225826375946800,-0.9857807501915842,-0.7844511723130941,-0.422957116767764,0.2165795862674713,0.4645186364650726,0.1338520646095276,walking
1761225826385960700,-0.6968871628895401,-0.8730062386006117,-0.2312175703376531,0.2120506167411804,0.5474265813827515,0.1035511493682861,walking
1761225826395973600,-0.3844037334244698,-0.8350929797917604,0.0012403554499149,0.1785288006067276,0.6292402148246765,0.0968553945422172,walking
1761225826405986800,-0.0598654898326843,-0.7515244697451591,0.3340408159524202,0.1191403120756149,0.6491830348968506,0.1101328507065773,walking
1761225826416000500,0.2097597717672586,-0.7742407439440488,0.5325760138720274,0.0577943585813045,0.6518798470497131,0.1241673231124877,walking
1761225826426013700,0.4414354246033355,-0.9162509215652942,0.6373159067630767,-0.007559347897768,0.632828414440155,0.1451282650232315,walking
1761225826436027000,0.659528469223529,-1.021982163581252,0.9188537975400686,-0.0873135104775428,0.5244511365890503,0.1696312874555587,walking
1761225826446039600,0.9065965196438132,-1.0300006348639723,1.0887246265113353,-0.1856885552406311,0.3329205811023712,0.2145108878612518,walking
1761225826456053800,1.022356403721124,-0.8865759142696857,0.8900625873416662,-0.2688163220882416,0.1453576833009719,0.2700813114643097,walking
1761225826466066700,0.936031799899414,-0.6529232257395983,0.3339467079281806,-0.3373650014400482,0.0152324363589286,0.3289158642292022,walking
1761225826476079600,0.60711888488736,-0.4106441631615161,-0.414378088992834,-0.3771482706069946,-0.0264719258993864,0.3698453307151794,walking
1761225826486093800,0.3118294225357472,-0.1480968040585517,-1.2224451146930455,-0.3742435574531555,0.0026859594509005,0.4033281803131103,walking
1761225826496106800,0.0388672167991288,0.1331663614302873,-2.0118670611560345,-0.3150234818458557,0.1202432736754417,0.4262717068195343,walking
1761225826506119700,-0.2849788980763405,0.3103974900364875,-2.57296248254776,-0.2170727103948593,0.2816257774829864,0.4311785697937011,walking
1761225826516134000,-0.5090784531023353,0.4919914900273084,-2.882169886016845,-0.0638795346021652,0.4937473833560943,0.4211715459823608,walking
1761225826526146600,-0.5315408986706286,0.617232903677225,-2.8536984092921016,0.1086914390325546,0.6845991015434265,0.4026854932308197,walking
1761225826536159700,-0.2912961731980554,0.6703314566582441,-2.361169743648172,0.2751951217651367,0.7893462777137756,0.3970968723297119,walking
1761225826546172700,0.1371514307447709,0.6693482908397913,-1.5837924552440643,0.4159759283065796,0.8083503246307373,0.4011544585227966,walking
1761225826556186600,0.5175751363560557,0.5875935522168875,-0.7614923215299845,0.5159029960632324,0.7410309314727783,0.4084950387477875,walking
1761225826566199800,0.7717612751532346,0.5067302094757556,-0.0274859728187322,0.5677425265312195,0.6365175247192383,0.4185218513011932,walking
1761225826576212700,1.0001610115911812,0.5470061057627201,0.5882604916930199,0.5782502889633179,0.5125340819358826,0.4430277347564697,walking
1761225826586227200,1.2234398248188196,0.535754643908143,1.0210223786383867,0.5509321093559265,0.3965770900249481,0.485002338886261,walking
1761225826596240400,1.404685303632915,0.5382067132353783,1.290524379184842,0.4943078160285949,0.2989242672920227,0.5355283617973328,walking
1761225826606253000,1.4406725628152488,0.4361059366762638,1.424620130419731,0.4262549877166748,0.2126796692609787,0.5677781701087952,walking
1761225826616266200,1.3329798114679754,0.3369160791277885,1.5583651685208082,0.3294921815395355,0.1142241582274437,0.5728934407234192,walking
1761225826626280200,1.166721473905444,0.2986789951920509,1.5878852775156498,0.2228861153125763,0.0293020810931921,0.5670568346977234,walking
1761225826636293000,1.022782739374414,0.2281716267704963,1.444506734150648,0.111935943365097,-0.0315601602196693,0.5495589375495911,walking
1761225826646306300,0.8458454791482537,0.1255576399922371,1.1575474028468131,0.0075738569721579,-0.0687514692544937,0.5207166075706482,walking
1761225826656320000,0.5393498188558966,0.086222823947668,0.8704390184611082,-0.0837703570723533,-0.0673455744981765,0.4683642089366913,walking
1761225826666333200,0.207355742832832,0.0721340928405523,0.5442202744364738,-0.1637789160013198,-0.0481409877538681,0.3862427175045013,walking
1761225826676346400,0.0286926177952904,0.100035076200962,0.2650286545246839,-0.2270895540714264,-0.0220925733447074,0.3023252189159393,walking
1761225826686359000,-0.0221636452848091,0.2631575999557972,-0.1354483348876237,-0.2489085644483566,0.050860196352005,0.2366173416376114,walking
1761225826696373200,0.0106225528338924,0.4686287346184253,-0.6056880118340253,-0.23078154027462,0.1666930168867111,0.1920111775398254,walking
1761225826706386200,0.0328961612991988,0.6826940946251153,-0.8760779011309147,-0.1835977882146835,0.3006971776485443,0.1631523668766021,walking
1761225826716399000,0.0861732126522809,0.8015069365322589,-0.9928612830370664,-0.112758532166481,0.421951413154602,0.1405909061431884,walking
1761225826726413300,0.1931951520659029,0.8267717261701821,-0.8818822034955024,-0.0271573401987552,0.5055469870567322,0.1240281760692596,walking
1761225826736426200,0.3359339727552607,0.8105489056438208,-0.5485936672151088,0.0522883124649524,0.5324406623840332,0.1176725253462791,walking
1761225826746439200,0.5043843039367347,0.7095557980656624,-0.1080786819249391,0.1165408045053482,0.5099473595619202,0.1200619116425514,walking
1761225826756452400,0.6693558896243572,0.5988660568594932,0.359127326413989,0.1472310125827789,0.4600403010845184,0.1282699108123779,walking
1761225826766466000,0.7965151926595717,0.453671988505125,0.7775473842740058,0.150345578789711,0.3863045573234558,0.13726207613945,walking
1761225826776479200,0.8694019304983317,0.3220347363382577,1.140749412781,0.123797133564949,0.3095229864120483,0.1401242166757583,walking
1761225826786492200,0.8872784365158528,0.2143009223282337,1.4370330372691154,0.0631116852164268,0.2257780134677887,0.1380629241466522,walking
1761225826796506000,0.914946999359876,0.1288338851839303,1.639291639626026,-0.023501731455326,0.1539871245622635,0.1455082297325134,walking
1761225826806519300,0.9732417327445,0.1025011740535497,1.617386681810021,-0.1218781024217605,0.1078004613518714,0.1668388247489929,walking
1761225826816532200,0.9450573293328284,0.107978144159913,1.3909405636578798,-0.2127562761306762,0.0922462865710258,0.1887747794389724,walking
1761225826826546200,0.8434024699103086,0.1167635081619024,1.0379407802134752,-0.2853090465068817,0.1045159995555877,0.2119397521018982,walking
1761225826836559400,0.7099564147558063,0.1648345883697271,0.6598702683985233,-0.3211472928524017,0.1010626852512359,0.2318476885557174,walking
1761225826846572300,0.5749598787562922,0.1547901642173528,0.2239636536866426,-0.3034436404705047,0.0824269503355026,0.2448870688676834,walking
1761225826856585200,0.4407635166911408,0.1554886678755283,-0.2724140886008739,-0.238289475440979,0.085069715976715,0.247501716017723,walking
1761225826866599400,0.2634014186490327,0.1462865397661924,-0.5575292533427476,-0.1411472111940384,0.0835136324167251,0.2299195379018783,walking
1761225826876612000,0.1387922658875119,0.1414443604320287,-0.5709890388965606,-0.0414739623665809,0.06008031219244,0.2078541070222854,walking
1761225826886625300,0.1498946746602188,0.1313882458418607,-0.4612848015964031,0.0433983169496059,0.032534435391426,0.1892378181219101,walking
1761225826896639200,0.2264917108595371,0.1046440313011407,-0.33439562073946,0.1002225801348686,0.014774021692574,0.1914393305778503,walking
1761225826906652200,0.3486420996915549,0.1281862349301576,-0.1610334425210952,0.1306577175855636,0.0025937885511666,0.207602322101593,walking
1761225826916665300,0.3733141841333359,0.0961351461529731,0.0610007044076919,0.1255698502063751,-0.011805547401309,0.2237985432147979,walking
1761225826926678300,0.3768301563650369,-0.0003460369586944,0.17394903819561,0.1119419261813163,-0.0215609725564718,0.2396677881479263,walking
1761225826936692200,0.305603186698351,-0.0848059428870677,0.1318739835321903,0.0999417379498481,-0.0119052920490503,0.2312005311250686,walking
1761225826946705200,0.1799616130160167,-0.1613461617320775,0.0877718069553375,0.0930516123771667,-0.0020958059467375,0.2065862566232681,walking
1761225826956718000,0.0734722369759809,-0.2033317845463752,0.1169108076781034,0.0935709103941917,-0.0215378031134605,0.1748722791671753,walking
1761225826966732300,0.0929678960273973,-0.236506908917427,0.1334767425537109,0.0988237261772155,-0.0737650543451309,0.1468976289033889,walking
1761225826976745200,0.2244609904832206,-0.2086392433047294,0.1535544849425554,0.1200192123651504,-0.1776725649833679,0.1316145211458206,walking
1761225826986758100,0.357397214685753,-0.1551280178695917,0.1456038181990385,0.1471048891544342,-0.3008549213409424,0.1429358869791031,walking
1761225826996772400,0.3893113792102783,-0.0938888285309076,-0.0822293703973293,0.1948883682489395,-0.3825840055942535,0.1695955544710159,walking
1761225827006785300,0.3132731916032731,-0.0315372940361499,-0.3282470349818467,0.2521620690822601,-0.446022629737854,0.1861201971769333,walking
1761225827016798200,0.0990236706687137,-0.0744113901227712,-0.4638730645239353,0.2952867448329925,-0.4713161885738373,0.1872351616621017,walking
1761225827026811100,-0.1020429454246535,-0.2530646604865789,-0.63501581312716,0.3259589076042175,-0.429159939289093,0.168533906340599,walking
1761225827036825000,-0.2609491666587069,-0.4867191025823354,-0.7014630925029516,0.3363639712333679,-0.3617351055145263,0.1267365962266922,walking
1761225827046838300,-0.37470881682951,-0.6892085910856723,-0.5233569346278906,0.3085432350635528,-0.3398199677467346,0.0769770294427871,walking
1761225827056851200,-0.3515553567897528,-0.8265496078521013,-0.1800000087976455,0.2479251623153686,-0.3812214434146881,0.0122952861711382,walking
1761225827066865200,-0.2744725555006414,-1.0052361959636211,0.0114671504318714,0.1592988967895507,-0.4302073717117309,-0.0516325645148754,walking
1761225827076878300,-0.2491991076322272,-1.1942355037748813,0.0829752203285694,0.0455261282622814,-0.4796876311302185,-0.1158601269125938,walking
1761225827086891300,-0.2468289809674024,-1.2536036385446787,0.0763350516617298,-0.0918849930167198,-0.5315252542495728,-0.1622244417667389,walking
1761225827096904200,-0.3417046651111916,-1.129641743311286,-0.0993400796741247,-0.227045401930809,-0.5507413148880005,-0.2131043523550033,walking
1761225827106918100,-0.4547013680854812,-0.9608943654119968,-0.5274176081955433,-0.3311670124530792,-0.525307297706604,-0.2571117579936981,walking
1761225827116931300,-0.5325133238993585,-0.660870385351777,-1.0787544366389512,-0.3854077458381653,-0.4467161297798157,-0.290169894695282,walking
1761225827126944300,-0.5348246695816516,-0.294572144395113,-1.6074065550655126,-0.3792861998081207,-0.3051440715789795,-0.2986656427383423,walking
1761225827136958200,-0.455911876386404,0.0387105466663837,-2.0449071609705687,-0.3164496719837188,-0.1363033652305603,-0.2881336212158203,walking
1761225827146971100,-0.3251963787069544,0.3896908069819211,-2.265655359742045,-0.1914523392915725,0.0261673089116811,-0.2524094581604004,walking
1761225827156984000,-0.1347947298170998,0.6113461837261915,-2.2818448625206944,-0.0139234457165002,0.1579322665929794,-0.20148366689682,walking
1761225827166997200,0.0320980331914499,0.7445598914295435,-1.980813751244545,0.1803059428930282,0.2017764151096344,-0.1536026895046234,walking
1761225827177011200,0.1953800583569332,0.7349246325999498,-1.484738791295886,0.3724102675914764,0.1758446246385574,-0.1082869917154312,walking
1761225827187024100,0.3603105813818052,0.5979641395837069,-0.9831225638329982,0.5336055755615234,0.1141501069068908,-0.0802279263734817,walking
1761225827197037300,0.4738359478726983,0.4973679223686456,-0.585996053892374,0.6535098552703857,0.0693903639912605,-0.0532000362873077,walking
1761225827207051300,0.5500639224307611,0.4914163204878568,-0.239627086764574,0.7287346124649048,0.065955750644207,-0.0217064339667558,walking
1761225827217064200,0.6359180226638913,0.4820908582597971,0.0457645568311214,0.7548438310623169,0.0802062675356864,0.0141459954902529,walking
1761225827227077000,0.6889112886395306,0.4391647397249937,0.2606827342748641,0.7518967986106873,0.0973383784294128,0.0529732853174209,walking
1761225827237090000,0.6267177942506968,0.286629076436162,0.5306733951210976,0.6970723271369934,0.1167399510741233,0.0685744136571884,walking
1761225827247104300,0.519228383455798,0.1155173074930906,0.9647773443251848,0.5845209956169128,0.0823777168989181,0.0593625381588935,walking
1761225827257117200,0.4143631106194108,-0.0687169778734445,1.359292794984579,0.4282415211200714,-0.0007474645972251,0.0281621664762496,walking
1761225827267130000,0.3699095267890021,-0.169467508867383,1.533950273710489,0.2450107038021087,-0.0806308388710022,-0.0087529746815562,walking
1761225827277144300,0.3538973168060183,-0.0770347243636846,1.3804957420110702,0.0515404008328914,-0.1275753378868103,-0.032456237822771,walking
1761225827287157200,0.3731276851179078,0.1501437997162342,0.8693085531264543,-0.120150402188301,-0.1256709098815918,-0.0331784859299659,walking
1761225827297170200,0.3247169246269389,0.4760094925194978,0.1280354282826185,-0.242222398519516,-0.0560604445636272,-0.0136799495667219,walking
1761225827307183400,0.2521154700029641,0.8556284028202295,-0.5739186626076698,-0.3108144998550415,0.0658183246850967,0.0127287544310092,walking
1761225827317197000,0.2215639721337705,1.166717966774106,-1.035111694267392,-0.3358143270015716,0.1951262652873993,0.0669571384787559,walking
1761225827327210200,0.2924009378358722,1.373591953971982,-1.3651421055346726,-0.296419233083725,0.31125608086586,0.1405389457941055,walking
1761225827337223200,0.3873713875910267,1.4953385112434625,-1.6135282528162005,-0.2041184157133102,0.3945101797580719,0.2244569957256317,walking
1761225827347237000,0.4086772470027208,1.6112293282240628,-1.7375369098007678,-0.0552429258823394,0.4685633778572082,0.3067555725574493,walking
1761225827357250300,0.3446002769548446,1.6204752954751251,-1.7648697378844025,0.1332623064517974,0.5318493247032166,0.3743180334568023,walking
1761225827367263200,0.2221191948637366,1.5065695148319005,-1.4986007279098033,0.3315285146236419,0.5633726716041565,0.4146356284618377,walking
1761225827377276200,0.0808185537513345,1.208157061621547,-0.916547858685255,0.4882309734821319,0.5508547425270081,0.4208112359046936,walking
1761225827387290000,0.0161312697853893,0.8767980320990085,-0.1904454149663448,0.5811038613319397,0.4964570105075836,0.4144004881381988,walking
1761225827397303000,0.094129505418986,0.5826999349564314,0.4473731806218624,0.607267439365387,0.4320843815803528,0.4098142087459564,walking
1761225827407316200,0.211538508410193,0.4261801704674959,0.952455038368702,0.5747295022010803,0.3921825289726257,0.4073483645915985,walking
1761225827417330200,0.2558700732961297,0.29170564904809,1.3149796060055494,0.490823358297348,0.3696511387825012,0.4004897177219391,walking
1761225827427343000,0.2296998592510819,0.1421387724369764,1.5071937842100858,0.3650444149971008,0.3767204880714416,0.3921835720539093,walking
1761225827437356300,0.222733819630742,0.1153799448490142,1.5809528479039667,0.2243575304746627,0.4226453602313995,0.3926067054271698,walking
1761225827447370200,0.1463190537963062,0.1026689318358898,1.5580103637337683,0.0658637508749961,0.4866392612457275,0.3992973864078522,walking
1761225827457383200,0.0034542321071028,0.0320054960697889,1.4207307217657563,-0.0769310221076011,0.5572205781936646,0.3910516202449798,walking
1761225827467396400,-0.079302815426141,0.0376198288202285,1.158798864212632,-0.1860282123088836,0.6230350136756897,0.3780657649040222,walking
1761225827477409000,-0.1568034402685239,0.126768184825778,0.8571873227000236,-0.2618946135044098,0.6809341907501221,0.3655847012996673,walking
1761225827487423200,-0.2168140741929412,0.2390156768679618,0.6373509780764579,-0.2902434170246124,0.7133948802947998,0.367252916097641,walking
1761225827497436200,-0.1521616788772866,0.3587602466672658,0.3275742502868175,-0.2639653086662292,0.7330690026283264,0.3784400820732116,walking
1761225827507449000,-0.1063006211354397,0.5420768326669931,0.1112187335163354,-0.212463766336441,0.7449808120727539,0.4007589817047119,walking
1761225827517463300,-0.0229210943222977,0.7158569440364837,0.0658726943582296,-0.1540723890066146,0.7381727695465088,0.4536931216716766,walking
1761225827527476200,0.1006921153375878,0.7826952685564756,0.1721674154758453,-0.0931326150894165,0.6911445260047913,0.5171796679496765,walking
1761225827537489200,0.2010169317327439,0.7589876452326774,0.2844061396896839,-0.0426666773855686,0.6356738209724426,0.5833795070648193,walking
1761225827547502300,0.1861074953598901,0.7218383565336466,0.2950117048561573,-0.0030340468510985,0.5955727100372314,0.6445320248603821,walking
1761225827557516000,0.0160472264974378,0.7125146478712558,0.356102425634861,0.0301028117537498,0.5727102160453796,0.6878964304924011,walking
1761225827567529200,-0.1617210959916934,0.6635422349095345,0.4353589177012443,0.0431128852069377,0.5657021403312683,0.7263873815536499,walking
1761225827577542400,-0.3491102286599576,0.5249006569385528,0.4813631285071372,0.0390844345092773,0.5808882713317871,0.7443860173225403,walking
1761225827587556400,-0.5303080689400435,0.3495861756086349,0.4263929364353418,0.0240737926214933,0.625277578830719,0.7453335523605347,walking
1761225827597569500,-0.6754256379920989,0.265500363689661,0.3186217130243778,0.0181981772184371,0.686469316482544,0.7304996848106384,walking
1761225827607582500,-0.8372176437955349,0.127514034757018,0.2921533928155899,-0.0085167912766337,0.7486000657081604,0.7162808179855347,walking
1761225827617595400,-0.918400646945089,0.0150695588380098,0.358178062865138,-0.0405731275677681,0.7850738763809204,0.6792126893997192,walking
1761225827627609600,-0.9107198831841348,-0.0929296281099319,0.5128513227045536,-0.0960401147603988,0.7946237325668335,0.6447045207023621,walking
1761225827637622300,-0.8892356349982321,-0.1736339808970689,0.5686287395060062,-0.1451028287410736,0.7874312996864319,0.5948581099510193,walking
1761225827647635500,-0.877881589552015,-0.1963566848367452,0.6471306138128042,-0.1904066652059555,0.759852945804596,0.5379716753959656,walking
1761225827657649400,-0.8580845638006925,-0.1580178940922021,0.7245505381017923,-0.2232902348041534,0.7445513010025024,0.4880670011043548,walking
1761225827667662300,-0.8378722352467477,-0.1956517514377832,0.735810183262825,-0.2709488272666931,0.6465150117874146,0.4439813196659088,walking
1761225827677675500,-0.6358667308680713,-0.0900841755509376,0.6665969463050365,-0.299848735332489,0.5877925157546997,0.4445472061634063,walking
1761225827687688400,-0.5019548483001068,0.0915302827060222,0.3142506583333015,-0.3142926394939422,0.6122549772262573,0.4639922678470611,walking
1761225827697702400,-0.4402453745685517,0.2740320451915264,0.0543646273940801,-0.3224493563175201,0.6741623878479004,0.4989445209503174,walking
1761225827707715600,-0.3754901034003123,0.3856611130744218,-0.1636509315431118,-0.3123514354228973,0.7736013531684875,0.54486483335495,walking
1761225827717728300,-0.3178874804656952,0.4643886128306388,-0.4526233562350273,-0.2801054120063782,0.8801161646842957,0.6072861552238464,walking
1761225827727742500,-0.2411522870378568,0.4703828848093748,-0.5971966623425483,-0.2275546044111251,0.9649032354354858,0.6731014251708984,walking
1761225827737755600,-0.1935176620185375,0.3832628197610378,-0.4455623318076133,-0.1794680207967758,0.9829201698303224,0.7321604490280151,walking
1761225827747768300,-0.0878905927631072,0.2061965263277292,-0.1831558424800634,-0.1320592314004898,0.949382483959198,0.7941029071807861,walking
1761225827757781500,-0.0197389640047098,-0.0323942031264305,0.0334030879080295,-0.0920338258147239,0.8822726011276245,0.8434098958969116,walking
1761225827767795500,0.0116594855330418,-0.2235620871484279,0.1958446436613798,-0.0714435949921608,0.8172957301139832,0.8813982605934143,walking
1761225827777808400,-0.013079583747324,-0.4206009090304374,0.232886964854598,-0.0552012808620929,0.7762431502342224,0.9120052456855774,walking
1761225827787821600,-0.0476744547062087,-0.5238227985739707,0.0425923565357923,-0.0339913368225097,0.7570012807846069,0.9361475706100464,walking
1761225827797835300,-0.100894232047256,-0.6196797123074531,-0.3459235614478588,0.0066279768943786,0.8260052800178528,0.9466251134872437,walking
1761225827807848400,-0.0830016334114596,-0.5868658224642277,-0.642205432370305,0.0504167377948761,0.9272804856300354,0.9752870798110962,walking
1761225827817861600,0.1110866407024208,-0.5661404298216104,-0.5542939246833324,0.0695989206433296,0.9940611720085144,1.0185167789459229,walking
1761225827827874300,0.5049022268636152,-0.7583218748003244,-0.3182429428398609,0.0509352162480354,1.0293065309524536,1.0703279972076416,walking
1761225827837888500,0.7460767257332801,-1.033892381605506,-0.0594189881742,-0.012172533199191,1.039670705795288,1.1084246635437012,walking
1761225827847901400,0.8671079012770205,-1.3074573938071727,0.1876543229430914,-0.1134261786937713,0.9412323236465454,1.1439480781555176,walking
