timestamp,acc_x,acc_y,acc_z,gyr_x,gyr_y,gyr_z,activity
1761303795992610300,0.1058482974767685,0.6505393981933594,-1.986923694610596,0.217308908700943,-0.1939440071582794,-0.2079171389341354,walking
1761303796012884000,-0.0705859959125518,0.4330692291259765,-2.3006162643432617,-0.1247655525803566,-0.2293731421232223,-0.2598391473293304,walking
1761303796023020800,-0.3052880465984344,0.4143872261047363,-2.2831602096557617,-0.3110739588737488,-0.2971771955490112,-0.2757211923599243,walking
1761303796033157400,-0.6766945719718933,0.3995966911315918,-1.863242626190185,-0.4356867969036102,-0.2702999114990234,-0.2506764531135559,walking
1761303796043294200,-0.8201161623001099,0.3446159362792969,-1.2520356178283691,-0.4955498278141022,-0.1236965730786323,-0.1834832429885864,walking
1761303796063568000,-0.510507345199585,0.2627758979797363,-0.5797333717346191,-0.4338542520999908,0.2056264579296112,0.0461953245103359,walking
1761303796073704400,-0.946337103843689,0.2048316001892089,-0.5117716789245605,-0.3116848170757293,0.153704434633255,0.1750840991735458,walking
1761303796083841300,-1.3003365993499756,0.3686046600341797,-0.221414566040039,-0.1461452096700668,0.023517619818449,0.2923667728900909,walking
1761303796093978000,-1.1577718257904053,0.3445863723754883,0.5282344818115234,0.0896418318152427,-0.0375671051442623,0.3339043855667114,walking
1761303796104115000,-0.0865436792373657,0.179107666015625,1.297506332397461,0.2832804024219513,0.0082464376464486,0.3015294671058655,walking
1761303796114251800,0.5773417353630066,-0.0766024589538574,1.0632295608520508,0.3608580231666565,0.0962847992777824,0.2813715040683746,walking
1761303796124388400,0.502096951007843,-0.1582298278808593,0.2935609817504883,0.2930539846420288,0.1934095174074173,0.3192440569400787,walking
1761303796134525200,0.2526009082794189,-0.2392201423645019,-0.5894737243652344,0.1794363856315612,0.1683647781610489,0.3430670797824859,walking
1761303796144662000,0.4098006188869476,0.1333656311035156,-0.7226929664611816,0.1605001240968704,0.1005607321858406,0.2752630412578583,walking
1761303796154798800,0.6146570444107056,0.6038398742675781,0.0217981338500976,0.241742804646492,0.0779593810439109,0.2062373012304306,walking
1761303796164935400,0.5336172580718994,0.4678459167480469,0.5331764221191406,0.3822376728057861,0.0015271181473508,0.1805817186832428,walking
1761303796175072300,0.3936837315559387,-0.0690264701843261,0.7418098449707031,0.5459447503089905,0.0125223686918616,0.231282040476799,walking
1761303796185209000,0.1728664487600326,-0.817894458770752,0.9217138290405272,0.6968240141868591,0.1085017472505569,0.3241308331489563,walking
1761303796195346000,-0.0617325603961944,-1.162182331085205,0.9447832107543944,0.8532009124755859,0.2117349356412887,0.385215550661087,walking
1761303796205482500,-0.1316581666469574,-0.944744110107422,0.995464324951172,1.0279031991958618,0.2227301746606826,0.4010975956916809,walking
1761303796215619300,-0.1345225870609283,-0.544867992401123,0.5950813293457031,1.213677167892456,0.0033596600405871,0.4133145213127136,walking
1761303796225756200,-0.2084578573703766,-0.4817843437194824,-0.1692366600036621,1.3621129989624023,-0.351542592048645,0.4267531633377075,walking
1761303796235893000,-0.1195731610059738,-0.6114106178283691,-0.7669086456298828,1.469011306762695,-0.6795675754547119,0.4188121557235718,walking
1761303796246029600,0.1069385111331939,-0.4714484214782715,-0.8182373046875,1.5429238080978394,-0.8396095633506775,0.3705552220344543,walking
1761303796256166400,0.3504351079463959,-0.3502979278564453,-0.6263999938964844,1.6137820482254028,-0.9141329526901244,0.2996969223022461,walking
1761303796266303200,0.3017341494560241,-0.4377727508544922,-0.2488460540771484,1.6773102283477783,-0.9269607067108154,0.253272533416748,walking
1761303796276440000,-0.1007050722837448,-0.6945652961730957,0.2785506248474121,1.7548878192901611,-0.8732061386108398,0.2642678022384643,walking
1761303796286576600,-0.5009294748306274,-1.0621004104614258,0.8674559593200684,1.8220809698104856,-0.647803544998169,0.3510081171989441,walking
1761303796296713500,-0.5664650201797485,-1.6119756698608398,1.295942306518555,1.8452931642532349,-0.2922904193401336,0.4725667238235473,walking
1761303796306850300,-0.3088453412055969,-1.5841245651245115,1.2595505714416504,1.809253215789795,0.0901763290166854,0.526321291923523,walking
1761303796316987100,0.1631362736225128,-0.967928409576416,1.0011839866638184,1.7243454456329346,0.5250995755195618,0.5043307542800903,walking
1761303796327124000,0.7904248237609863,-0.3032708168029785,0.8253040313720703,1.6101170778274536,0.969796359539032,0.4285857081413269,walking
1761303796337260500,1.0164563655853271,0.124424934387207,1.1186790466308594,1.5520864725112915,1.2666682004928589,0.3216874301433563,walking
1761303796347397400,1.1131964921951294,0.4204969406127929,0.7888350486755371,1.5050512552261353,1.288658618927002,0.2086806893348693,walking
1761303796357534200,1.2195320129394531,0.6232967376708984,-0.1698713302612304,1.4598486423492432,1.2923237085342407,0.1701973229646682,walking
1761303796367671000,0.4764650166034698,0.6108341217041016,-0.3831634521484375,1.420143485069275,1.4755779504776,0.3180223405361175,walking
1761303796377807600,-0.3207819759845733,0.4562673568725586,-0.9174361228942872,1.4012072086334229,1.433429479598999,0.3962107896804809,walking
1761303796387944400,0.2438753098249435,0.1238994598388671,-1.380140781402588,1.4341930150985718,1.2605596780776978,0.359559953212738,walking
1761303796398081300,0.2897359132766723,-0.1327686309814453,-1.1574983596801758,1.5667468309402466,1.0321028232574463,0.3748311400413513,walking
1761303796408218000,-0.2792481184005737,-0.4903974533081054,-0.7369537353515625,1.8116966485977173,0.8280798196792603,0.5043307542800903,walking
1761303796418355000,-0.4674919545650482,-0.7947535514831543,-0.0808973312377929,2.1201744079589844,0.6704812049865723,0.6662052869796753,walking
1761303796428491800,-0.3147101104259491,-1.1446380615234375,0.029299259185791,2.3956665992736816,0.4884487390518188,0.7535564303398132,walking
1761303796438628400,0.6566786170005798,-0.7042922973632812,-0.1696281433105468,2.64794659614563,0.3222982883453369,0.724846601486206,walking
1761303796448765200,0.7124794125556946,-0.2101707458496093,-0.5134730339050293,2.767672538757324,0.1060583516955375,0.6906391978263855,walking
1761303796458902000,0.1529280394315719,-0.1038665771484375,-1.9269840717315676,2.688262462615967,-0.1786728203296661,0.7169055938720703,walking
1761303796469038800,-0.5164339542388916,-0.1312084197998047,-3.1623051166534424,2.503786563873291,-0.3930802047252655,0.80853271484375,walking
1761303796479175400,-0.7877617478370667,-0.2015161514282226,-3.280200481414795,2.322975873947144,-0.4144598543643951,0.8433510065078735,walking
1761303796489312300,0.3070464432239532,0.1612329483032226,-1.8973699808120728,2.159879446029663,-0.0711637064814567,0.752945601940155,walking
1761303796499449000,1.722429871559143,0.9800300598144532,-0.3782522678375244,1.9546349048614504,0.4169796109199524,0.572134792804718,walking
1761303796509586000,2.1364588737487797,1.5476198196411133,0.1827263832092285,1.706630825996399,0.919096052646637,0.3394020199775696,walking
1761303796519722800,2.176835060119629,1.842425346374512,0.0179617404937744,1.421976089477539,1.088300704956055,0.1860793530941009,walking
1761303796529859300,1.041104793548584,1.295903205871582,-1.3003830909729004,1.2820920944213867,0.8030350804328918,0.1952420622110366,walking
1761303796539996200,-0.4913290441036224,0.7530508041381836,-1.712139368057251,1.300417423248291,0.3522298038005829,0.3229091465473175,walking
1761303796550133000,-0.4383113980293274,0.1165666580200195,-2.526153326034546,1.3199645280838013,0.0106898266822099,0.3638359010219574,walking
1761303796560269800,-0.0229042172431945,-0.2483892440795898,-3.1882784366607666,1.3089693784713743,-0.2611372172832489,0.3534514904022217,walking
1761303796570406400,-0.2218232154846191,-0.6358242034912109,-3.0118296146392822,1.3028608560562134,-0.5024218559265137,0.3833830058574676,walking
1761303796580543200,-0.183651328086853,-0.7939901351928711,-2.253437757492065,1.245441198348999,-0.5494571328163147,0.445078581571579,walking
1761303796590680000,-0.1365280747413635,-1.013890266418457,-1.5109044313430786,1.1544249057769775,-0.4352286756038666,0.4798968732357025,walking
1761303796600817000,0.2580878734588623,-0.9289522171020508,-1.2861788272857666,1.0236272811889648,-0.2794626355171203,0.4603497684001922,walking
1761303796610953700,0.5172603726387024,-0.6710205078125,-2.052398681640625,0.8544226288795471,-0.1707318127155304,0.391934871673584,walking
1761303796621090300,0.5441814064979553,-0.4582710266113281,-2.4506285190582275,0.7035433053970337,-0.1059819981455802,0.3076379597187042,walking
1761303796631227100,0.5950832962989807,-0.4533958435058594,-2.291689395904541,0.5661026835441589,0.021074229851365,0.2544942498207092,walking
1761303796641364000,0.7314629554748535,-0.6813516616821289,-1.7367464303970337,0.4982986450195312,0.1353790163993835,0.1927986592054367,walking
1761303796651500800,1.056037425994873,-0.3534965515136719,-0.9859063625335692,0.4604261219501495,0.2007396817207336,0.0981173440814018,walking
1761303796661637600,1.193202018737793,-0.1372270584106445,-0.668379545211792,0.4726430773735046,0.126216322183609,0.0016034740256145,walking
1761303796671774200,1.1451315879821775,-0.0310115814208984,-0.7896904945373535,0.5044071078300476,-0.046729814261198,-0.0594812519848346,walking
1761303796681911000,0.6835227012634277,-0.1127004623413086,-0.840557873249054,0.5178457498550415,-0.186613842844963,-0.0509293898940086,walking
1761303796692048000,0.2523458003997803,-0.2000207901000976,-0.9912338256835938,0.5373928546905518,-0.3490992188453674,-0.0118351653218269,walking
1761303796702184700,0.1509220600128173,-0.3052167892456054,-1.0749890804290771,0.585038959980011,-0.4755446016788482,0.0156529601663351,walking
1761303796712321500,0.2190048694610595,-0.2609748840332031,-1.042344570159912,0.6662816405296326,-0.5745018720626831,0.0022143214009702,walking
1761303796722458000,0.4544342756271362,-0.1378746032714843,-0.4344477653503418,0.7646280527114868,-0.6435275673866272,-0.0277171935886144,walking
1761303796732595000,0.5947614908218384,-0.1755552291870117,-0.2580286264419555,0.8605310916900635,-0.7821899056434631,-0.0613137930631637,walking
1761303796742731800,0.7501004934310913,-0.0379180908203125,-0.0591914653778076,0.927724301815033,-0.8903098702430725,-0.0894127711653709,walking
1761303796752868600,0.7216992378234863,0.032968521118164,-0.2239007353782653,0.8660287261009216,-0.8567132949829102,-0.1266744434833526,walking
1761303796763005400,0.9202450513839722,0.0882167816162109,-0.9280273914337158,0.6736118197441101,-0.7003363966941833,-0.1938676536083221,walking
1761303796773142000,1.3689401149749756,-0.0396623611450195,-1.5983316898345947,0.3736858069896698,-0.3741439580917358,-0.2714452445507049,walking
1761303796783278800,1.8242013454437256,-0.0779638290405273,-2.274118423461914,-0.0936123430728912,0.2502183020114898,-0.3594072461128235,walking
1761303796793415700,2.1341700553894043,-0.0556020736694335,-3.2161312103271484,-0.6073349118232727,0.9307021498680116,-0.438817411661148,walking
1761303796803552500,1.994741916656494,-0.2042493820190429,-3.650506258010864,-0.8241856694221497,1.3570735454559326,-0.4577536582946777,walking
1761303796813689300,1.1390732526779177,-0.5303668975830078,-2.575000047683716,-0.0160347409546375,0.9050465822219848,-0.3948363959789276,walking
1761303796823826000,0.2539605498313904,-0.5807857513427734,-1.2901796102523804,0.3779617547988891,-0.016798298805952,-0.3239781260490417,walking
1761303796833962800,0.0765359997749328,-0.5953092575073242,-2.8987038135528564,0.2875563502311706,-0.5189147591590881,-0.1908134073019027,walking
1761303796844099600,0.1045876145362854,-0.3650112152099609,-4.232978343963623,0.0248920265585184,-0.4498890042304992,-0.0857476815581321,walking
1761303796854236400,0.6052123308181763,0.1295490264892578,-3.7068240642547607,-0.1351499557495117,-0.2696890532970428,-0.0613137930631637,walking
1761303796864373200,0.664493978023529,0.2873201370239258,-1.6111258268356323,-0.1388150453567505,-0.2764083743095398,-0.0582595579326152,walking
1761303796874509800,0.1522518992424011,0.2794742584228515,-0.5161828994750977,-0.1027750521898269,-0.3442124426364898,-0.0875802263617515,walking
1761303796884646700,-0.1135064363479614,0.2048721313476562,-0.3765318095684051,-0.0887255668640136,-0.3503209054470062,-0.1315612345933914,walking
1761303796894783500,-0.227518618106842,-0.0609674453735351,-0.4541860222816467,-0.1064401343464851,-0.2702999114990234,-0.1480541080236435,walking
1761303796904920300,-0.3927900791168213,-0.3547401428222656,-0.5982813239097595,-0.1272089481353759,-0.1554606258869171,-0.1382805556058883,walking
1761303796915057200,-0.3648673892021179,-0.40118408203125,-0.645012617111206,-0.1559187620878219,-0.0791047215461731,-0.1291178464889526,walking
1761303796925193700,-0.0276973843574523,-0.3212137222290039,-0.6826728582382202,-0.1870719790458679,-0.0687203183770179,-0.1181225851178169,walking
1761303796945467400,-0.5748975872993469,-2.055813789367676,-1.3612983226776123,-0.2347180545330047,-0.1530172377824783,0.1439308822154998,walking
1761303796955604200,0.6223888397216797,-0.2789735794067383,-0.4525477290153503,-0.2475458532571792,-0.0131332157179713,0.0816244632005691,walking
1761303796965741000,0.5430364608764648,0.986154556274414,-0.5313853025436401,-0.256708562374115,-0.1579040139913559,0.1329356282949447,walking
1761303796975877600,0.1846734285354614,-0.2802162170410156,-1.2486027479171753,-0.3037438094615936,-0.2849602401256561,0.2422772943973541,walking
1761303796986014500,-0.1742156147956848,-0.8935012817382812,-1.1655436754226685,-0.3251234591007232,-0.1597365587949752,0.3149681091308594,walking
1761303796996151300,0.384134292602539,0.1657295227050781,0.0629524588584899,-0.3348970115184784,-0.0565033704042434,0.2202867865562439,walking
1761303797006288100,0.5821682214736938,0.970149040222168,-0.0048799514770507,-0.3110739588737488,-0.1194206401705741,0.1366007179021835,walking
1761303797016425000,0.404784083366394,0.4465551376342773,-0.4061359167098999,-0.1357607990503311,-0.5580089688301086,0.1103342846035957,walking
1761303797046835200,-0.2251671552658081,0.0570564270019531,-0.2740964293479919,-0.3061871826648712,0.0938414111733436,0.2373905181884765,walking
1761303797056972000,0.2538405656814575,0.3373537063598633,-0.3041939735412597,-0.2689255177974701,0.1164427623152732,0.253272533416748,walking
1761303797067108900,0.2069172859191894,0.4661226272583008,-0.7703890800476074,-0.2322746664285659,0.1830251067876815,0.3051945567131042,walking
1761303797087382300,0.0208657979965209,-0.5643930435180664,-0.4696022868156433,-0.1595838516950607,0.2227301746606826,0.415147066116333,walking
1761303797107656000,0.6498628854751587,-0.3922929763793945,-0.677672266960144,,,,walking
1761303797117792800,1.136967658996582,-0.2774333953857422,-0.5458929538726807,-0.0484096445143222,0.3241308331489563,0.3168006539344787,walking
1761303797127929600,1.082973599433899,-0.2327299118041992,-0.5678008794784546,-0.0258082970976829,0.3473430275917053,0.3009186387062073,walking
1761303797138066400,0.2628198862075805,-0.5283346176147461,-0.6596948504447937,0.0071774553507566,0.3198548853397369,0.2941993176937103,walking
1761303797148203000,0.229325532913208,-0.5419826507568359,-0.4975596666336059,0.0261137206107378,0.3314609825611114,0.259991854429245,walking
1761303797158339800,0.1922768354415893,-0.3468046188354492,-0.5868816375732422,0.0419957488775253,0.3210766017436981,0.2496074587106704,walking
1761303797168476700,0.2958533763885498,-0.3982553482055664,-0.6558384895324707,0.0481042228639125,0.3094705045223236,0.2221193313598632,walking
1761303797178613500,0.2810564041137695,-0.2785215377807617,-0.8209594488143921,0.0536018460988998,0.2923667728900909,0.20806984603405,walking
1761303797188750300,0.2461534738540649,-0.3483734130859375,-0.832099199295044,0.0590994730591774,0.2770955860614776,0.1457634270191192,walking
1761303797198887000,0.6151857376098633,-0.1571063995361328,-0.7646564841270447,0.059710320085287,0.2691545784473419,0.0981173440814018,walking
1761303797209023700,0.2368468046188354,-0.5280637741088867,-0.8072713017463684,0.07498150318861,0.2233410328626632,0.1030041202902793,walking
1761303797219160600,0.0653702020645141,-0.5859212875366211,-0.8093181848526001,0.0933069214224815,0.1903552711009979,0.0541363395750522,walking
1761303797229297400,0.7312328815460205,-0.2353315353393554,-0.8595132827758789,0.0859767496585846,0.1824142634868621,0.0077119464986026,walking
1761303797239434200,0.5675983428955078,-0.220193862915039,-0.9576932191848756,0.0975828468799591,0.1524827480316162,0.0046577104367315,walking
1761303797249571000,0.2280746698379516,-0.2720508575439453,-0.9085574150085448,0.1067455559968948,0.10178242623806,-0.0118351653218269,walking
1761303797259707600,0.4338704347610473,-0.1466512680053711,-0.9258072972297668,0.1091889441013336,0.0810136198997497,-0.0973537787795066,walking
1761303797269844500,0.7802760601043701,-0.032271385192871,-0.9341628551483154,0.1006370857357978,0.0724617540836334,-0.1419456303119659,walking
1761303797279981300,0.7319338321685791,0.1138620376586914,-0.9355629682540894,0.0988045409321785,0.0736834481358528,-0.1895917207002639,walking
1761303797290118100,0.7865177392959595,0.2082729339599609,-0.9012348651885986,0.0994153916835784,0.071240060031414,-0.2421245872974395,walking
1761303797300255000,0.977179765701294,0.087564468383789,-1.0208650827407837,0.104302167892456,0.0485623553395271,-0.2781645655632019,walking
1761303797310391800,0.8629810810089111,0.1046218872070312,-1.037354588508606,0.1305686086416244,0.0534491352736949,-0.3337516784667969,walking
1761303797320528400,1.202756404876709,0.0658349990844726,-0.5111675262451172,0.158667579293251,0.0387887991964817,-0.3985014855861664,walking
1761303797330665200,1.00984525680542,-0.0132398605346679,-0.8890621066093445,0.1159082651138305,0.0363454110920429,-0.4449258744716644,walking
1761303797340802000,0.8184758424758911,-0.1157341003417968,-1.2093207836151123,0.1299577504396438,0.1103342846035957,-0.4644729793071747,walking
1761303797350939000,0.7250716686248779,-0.2625541687011719,-0.6008262634277344,0.1898207813501358,0.0675749778747558,-0.4345414638519287,walking
1761303797361075700,0.4432214498519897,-0.4024457931518554,-0.7857665419578552,0.1666085869073867,0.0662769302725792,-0.3728458881378174,walking
1761303797371212300,0.397016167640686,-0.1882762908935547,-1.1673126220703125,0.1415638476610183,0.0993390381336212,-0.3044309914112091,walking
1761303797381349000,-0.0307329893112182,-0.5806684494018555,-0.8671365976333618,0.1336228400468826,0.1103342846035957,-0.2164690047502517,walking
1761303797391486000,-0.0950833559036254,-0.8894786834716797,-0.7155212163925171,0.1372879147529602,0.0656660795211792,-0.2103605270385742,walking
1761303797401622800,0.5734500885009766,-0.5187911987304688,-0.7970268726348877,0.1427855491638183,0.0302369389683008,-0.237237811088562,walking
1761303797411759600,0.7866050004959106,-0.2415409088134765,-0.8145691156387329,0.1745496094226837,-0.0442864261567592,-0.2757211923599243,walking
1761303797421896400,0.8361363410949707,-0.0808286666870117,-0.5685315728187561,0.2307475507259369,-0.1420219838619232,-0.3007659316062927,walking
1761303797432033000,0.3872952461242676,0.2186355590820312,-0.1350267827510833,0.3071034550666809,-0.2189887464046478,-0.3190913498401642,walking
1761303797442169900,0.2054316997528076,0.5396890640258789,0.0826339721679687,0.3370349705219269,-0.2666348218917846,-0.3453577756881714,walking
1761303797452306700,0.3319264650344848,1.0948057174682615,-0.3464090526103973,0.2985515892505646,-0.3368822634220123,-0.3270323574542999,walking
1761303797462443500,0.1035578250885009,1.6518640518188477,-0.7401329278945923,0.2356343269348144,-0.4089622497558594,-0.3087069392204284,walking
1761303797472580400,0.3625658750534057,1.873029708862305,-0.5091380476951599,0.1739387512207031,-0.4450022280216217,-0.2909923493862152,walking
1761303797482717200,0.4266395568847656,2.072138786315918,-0.0448733866214752,0.1171299591660499,-0.460273414850235,-0.2598391473293304,walking
1761303797492853800,0.4133005142211914,2.084837913513184,0.5389615297317505,0.080479122698307,-0.4700469672679901,-0.2500655949115753,walking
1761303797502990600,0.5465793013572693,2.05710506439209,0.9269469380378724,0.0645971000194549,-0.4456130862236023,-0.2622825503349304,walking
1761303797513127400,0.756085991859436,1.998495101928711,1.1877014636993408,0.059710320085287,-0.3857500553131103,-0.2922140657901764,walking
1761303797523264300,0.8849086761474609,1.6000261306762695,1.1135339736938477,0.0639862492680549,-0.3210002481937408,-0.3038201630115509,walking
1761303797533401000,0.6582567095756531,1.023503303527832,0.9453216791152954,0.0762031972408294,-0.2635805904865265,-0.2751103341579437,walking
1761303797543538000,0.352865993976593,0.4747533798217773,0.6018412709236145,0.0762031972408294,-0.2409792393445968,-0.2335727214813232,walking
1761303797553674500,0.2175098061561584,-0.001082420349121,0.3166272640228271,0.0676513314247131,-0.2342599183320999,-0.17737478017807,walking
1761303797563811300,0.0858616232872009,-0.3449430465698242,0.2683726549148559,0.0676513314247131,-0.1951656937599182,-0.1089598834514617,walking
1761303797573948200,0.02889084815979,-0.6744441986083984,0.3724598884582519,0.0682621821761131,-0.1585148572921753,-0.060702946037054,walking
1761303797584085000,0.031040608882904,-0.8922691345214844,0.3974575400352478,0.0700947195291519,-0.1438545286655426,-0.028938889503479,walking
1761303797594221800,-0.0341043472290039,-0.980238914489746,0.4050238132476806,0.0627645552158355,-0.1554606258869171,-0.0228304155170917,walking
1761303797604358700,-0.010904848575592,-0.9345579147338868,0.4273248016834259,0.0444391369819641,-0.1475196182727813,-0.0454317666590213,walking
1761303797614495200,-0.0007756352424621,-0.8704185485839844,0.6773923635482788,0.0389415137469768,-0.1414111405611038,-0.0826934501528739,walking
1761303797624632000,-0.0330944061279296,-0.8044624328613281,0.8647804260253906,0.021226942539215,-0.1450762301683426,-0.1114032715559005,walking
1761303797634769000,-0.218403160572052,-0.7842073440551758,0.9261693954467772,0.0090099973604083,-0.1524063944816589,-0.1272853016853332,walking
1761303797644905700,-0.3436527252197265,-0.8331985473632812,0.9761677980422974,-0.0062611843459308,-0.1511846929788589,-0.1462215632200241,walking
1761303797655042600,-0.500259280204773,-0.8582296371459961,1.033564567565918,-0.0007635590736754,-0.1499630063772201,-0.1590493619441986,walking
1761303797665179400,-0.547970175743103,-0.8451347351074219,1.1582611799240112,0.0102316914126276,-0.133470132946968,-0.1676012128591537,walking
1761303797675316200,-0.6926718950271606,-0.8821229934692383,1.0702022314071655,0.009620844386518,-0.115755558013916,-0.1706554591655731,walking
1761303797685452800,-0.8029212951660156,-0.8569974899291992,0.9701255559921264,0.0041232188232243,-0.1053711548447609,-0.1737096905708313,walking
1761303797695589600,-0.8792096972465515,-0.8176584243774414,0.9262115359306335,-0.0105371149256825,-0.0925433561205864,-0.1737096905708313,walking
1761303797705726500,-0.9059264659881592,-0.7260160446166992,0.9330747723579408,-0.027640838176012,-0.0687203183770179,-0.1645469814538955,walking
1761303797715863300,-0.9990367889404296,-0.6418237686157227,0.946088433265686,-0.036192700266838,-0.0497840531170368,-0.1413347870111465,walking
1761303797726000000,-1.0163638591766355,-0.5292444229125977,0.8767048120498657,-0.0484096445143222,-0.0204633828252553,-0.1071273386478424,walking
1761303797736137000,-0.939433217048645,-0.3289155960083008,0.7780686616897583,-0.0581832006573677,-0.0015271181473508,-0.0716981962323188,walking
1761303797746273500,-0.8136541247367859,-0.1437082290649414,0.7072613835334778,-0.0697892978787422,0.0241284668445587,-0.0393232926726341,walking
1761303797756410400,-0.7423065900802612,0.033635139465332,0.6905535459518433,-0.0795628577470779,0.0418430380523204,-0.0008399150101467,walking
1761303797766547200,-0.6813886165618896,0.1292810440063476,0.7042577862739563,-0.0844496339559555,0.0706292167305946,0.0297024473547935,walking
1761303797786820900,-0.4884543418884277,0.3387517929077148,0.5358262062072754,-0.1058292910456657,0.1164427623152732,0.0920088663697242,walking
1761303797796957700,-0.3242352604866028,0.4191827774047851,0.4395448565483093,-0.1174353882670402,0.1408766508102417,0.1066692024469375,walking
1761303797807094500,-0.0736982822418212,0.3969602584838867,0.4019315242767334,-0.1296523362398147,0.1677539348602295,0.1176644563674926,walking
1761303797817231000,0.0733433365821838,0.3011426925659179,0.3534339070320129,-0.143701821565628,0.1927986592054367,0.1170536056160926,walking
1761303797827368000,0.0823723077774047,0.0819740295410156,0.2908141613006592,-0.143701821565628,0.2044047713279724,0.1091125905513763,walking
1761303797837504800,-0.0063199400901794,-0.1407604217529297,0.2544010281562805,-0.1461452096700668,0.2141783237457275,0.1103342846035957,walking
1761303797847641600,-0.0343236327171325,-0.3147554397583008,0.2543995976448059,-0.1418692767620086,0.201350525021553,0.1030041202902793,walking
1761303797857778400,-0.0919786095619201,-0.4498376846313476,0.2097075581550598,-0.1375933438539505,0.179360032081604,0.0901763290166854,walking
1761303797867915300,-0.1866068243980407,-0.5414161682128906,0.1727276444435119,-0.1351499557495117,0.1646996885538101,0.0810136198997497,walking
1761303797878051800,-0.3055980205535888,-0.5921411514282227,0.1434443593025207,-0.1327065676450729,0.1469851285219192,0.0663532838225364,walking
1761303797888188700,-0.3813578188419342,-0.5618019104003906,0.0982391238212585,-0.1278197914361953,0.1298813968896865,0.0437519364058971,walking
1761303797898325500,-0.3740984797477722,-0.5293703079223633,0.0798848867416381,-0.1247655525803566,0.1133885234594345,0.0260373651981353,walking
1761303797908462300,-0.4274929165840149,-0.4877233505249023,0.0506385564804077,-0.1162136942148208,0.1023932695388794,0.0119878770783543,walking
1761303797918599200,-0.4339967370033264,-0.3535127639770508,0.0602256059646606,-0.1113269105553627,0.0901763290166854,-0.0026724566705524,walking
1761303797928735700,-0.4602304697036743,-0.2248754501342773,0.1441106796264648,-0.1070509850978851,0.0804027691483497,-0.0203870274126529,walking
1761303797938872600,-0.5046811103820801,-0.1946191787719726,0.1994346380233764,-0.1027750521898269,0.0791810750961303,-0.0277171935886144,walking
1761303797949009400,-0.534390926361084,-0.195474624633789,0.211443543434143,-0.1046075895428657,0.0779593810439109,-0.0301605835556983,walking
1761303797959146200,-0.5304388403892517,-0.1486616134643554,0.1564686894416809,-0.1070509850978851,0.0761268362402916,-0.0319931246340274,walking
1761303797969283000,-0.4952175617218017,-0.1235074996948242,0.1586934328079223,-0.1094943732023239,0.0785702317953109,-0.0350473597645759,walking
1761303797979420000,-0.5223556756973267,-0.0960493087768554,0.1011735200881958,-0.1113269105553627,0.0785702317953109,-0.0326039716601371,walking
1761303797989556700,-0.54538893699646,-0.0662193298339843,0.0718107223510742,-0.1186570823192596,0.0779593810439109,-0.0246629584580659,walking
1761303797999693300,-0.5452112555503845,-0.0626792907714843,0.059274137020111,-0.1186570823192596,0.0779593810439109,-0.0173327904194593,walking
1761303798009830100,-0.5127383470535278,-0.1209630966186523,-0.0039750933647155,-0.125987246632576,0.0810136198997497,-0.0063375402241945,walking
1761303798019967000,-0.5627576112747192,-0.1644086837768554,-0.1117822527885437,-0.1455343663692474,0.0883437842130661,0.0077119464986026,walking
1761303798030103800,-0.5003572702407837,-0.150909423828125,-0.1153644323348999,-0.1455343663692474,0.1121668294072151,0.0211505871266126,walking
1761303798040240600,-0.4260980784893036,-0.2342138290405273,0.2642343640327453,-0.1290414780378341,0.0920088663697242,0.0321458354592323,walking
1761303798050377500,-0.4014308452606201,-0.2026357650756836,-0.1225475072860717,-0.1742441803216934,0.0871220901608467,0.0449736304581165,walking
1761303798060514300,-0.3492915034294128,-0.1056966781616211,-0.6597124338150024,-0.1656923145055771,0.0773485377430915,0.048027865588665,walking
1761303798070651000,-0.2232599854469299,-0.1614179611206054,-0.1851750016212463,-0.119878776371479,0.0589467622339725,0.0523037947714328,walking
1761303798080787700,-0.2561788558959961,-0.3221111297607422,-0.1768996715545654,-0.1137702986598014,0.0393996499478817,0.0657424330711364,walking
1761303798090924500,-0.3124043047428131,-0.2354040145874023,-0.2919490337371826,-0.0984991192817688,0.023517619818449,0.0675749778747558,walking
1761303798101061400,-0.1530411839485168,-0.1314697265625,-0.2552798986434936,-0.0832279399037361,0.023517619818449,0.0632990449666976,walking
1761303798111198200,-0.1504027843475341,-0.0364313125610351,-0.3201949000358581,-0.0801737010478973,0.0302369389683008,0.0504712536931037,walking
1761303798121335000,-0.0521531105041503,0.002878189086914,-0.3692836761474609,-0.0740652307868003,0.0259610079228878,0.0590231157839298,walking
1761303798131472000,-0.1567669808864593,0.0861043930053711,-0.3938829302787781,-0.0484096445143222,0.0265718549489974,0.0706292167305946,walking
1761303798141608400,-0.1948894262313842,0.0570182800292968,-0.2565624713897705,-0.0093154208734631,0.0284043978899717,0.0828461572527885,walking
1761303798151745300,-0.2217949032783508,-0.0189409255981445,-0.1624451875686645,0.0291679557412862,0.0149657577276229,0.0938414111733436,walking
1761303798161882000,-0.2330298721790313,-0.0890531539916992,-0.2747231721878052,0.0523801520466804,0.0003054236294701,0.1054475083947181,walking
1761303798172019000,-0.2848945558071136,-0.0591993331909179,-0.3623730540275574,0.0670404881238937,-0.0229067727923393,0.1115559786558151,walking
1761303798182155800,-0.2297870814800262,-0.0063810348510742,-0.4287725389003753,0.07498150318861,-0.0516165941953659,0.1072800531983375,walking
1761303798192292600,-0.0804494619369506,0.0476741790771484,-0.3906701207160949,0.0951394587755203,-0.0833806544542312,0.094452254474163,walking
1761303798202429200,-0.0406329035758972,0.0017566680908203,-0.3492822349071502,0.1097997948527336,-0.1041494607925415,0.0797919258475303,walking
1761303798212566000,-0.0050108432769775,-0.057596206665039,-0.3530484437942505,0.1122431829571724,-0.1072036921977996,0.0675749778747558,walking
1761303798222702800,0.0019360184669494,-0.0454397201538085,-0.3364745378494262,0.1262926757335662,-0.1181989461183548,0.065131589770317,walking
1761303798232839700,-0.0646500587463378,-0.0076465606689453,-0.3633845448493957,0.1409530043601989,-0.1316375881433487,0.0687966719269752,walking
1761303798242976500,-0.2071745991706848,-0.0269441604614257,-0.3954007625579834,0.1556133329868316,-0.1426328420639038,0.0859003961086273,walking
1761303798253113300,-0.2949685752391815,0.0011520385742187,-0.424401581287384,0.1800472289323806,-0.1572931706905365,0.1036149635910987,walking
1761303798263250000,-0.316449761390686,0.0852928161621093,-0.3641002774238586,0.1971509456634521,-0.163401648402214,0.1146102175116539,walking
1761303798273386800,-0.3191874623298645,0.132699966430664,-0.3172366321086883,0.2142546772956848,-0.1658450365066528,0.1194969937205314,walking
1761303798283523600,-0.2915086150169372,0.1370191574096679,-0.3227719664573669,0.2160872220993042,-0.1627907902002334,0.1225512325763702,walking
1761303798293660400,-0.294918805360794,0.1696319580078125,-0.3947488665580749,0.2087570577859878,-0.1731752008199691,0.1225512325763702,walking
1761303798303797200,-0.2794016599655151,0.1923131942749023,-0.4342095255851745,0.2142546772956848,-0.1945548504590988,0.1213295385241508,walking
1761303798313934000,-0.3378879427909851,0.1418342590332031,-0.4928666651248932,0.2044811248779297,-0.1817270666360855,0.1304922401905059,walking
1761303798324071000,-0.325522780418396,0.0758037567138671,-0.4319431483745575,0.2130329757928848,-0.1872246861457824,0.1384332627058029,walking
1761303798334207500,-0.2718013226985931,0.0603981018066406,-0.394372820854187,0.2246390730142593,-0.1945548504590988,0.1469851285219192,walking
1761303798344344300,-0.2320163249969482,0.0783948898315429,-0.5598512887954712,0.2234173864126205,-0.2116585820913314,0.1598129123449325,walking
1761303798354481200,-0.2458540201187133,0.1009798049926757,-0.6868449449539185,0.2264716178178787,-0.2226538211107254,0.1720298528671264,walking
1761303798364618000,-0.1778627634048462,0.1185474395751953,-0.8207529783248901,0.2533488869667053,-0.2342599183320999,0.1805817186832428,walking
1761303798374754800,-0.1614688634872436,0.0959291458129882,-0.8507946729660034,0.2814478874206543,-0.2324273884296417,0.1921878159046173,walking
1761303798384891600,-0.1557157635688781,0.0314521789550781,-0.7638227343559265,0.3174878656864166,-0.2281514555215835,0.2031830698251724,walking
1761303798395028500,-0.283054769039154,0.0576972961425781,-0.5893311500549316,0.3596363365650177,-0.2373141646385193,0.2160108685493469,walking
1761303798405165000,-0.4192638993263244,0.3236875534057617,-0.3073448240756988,0.4030064642429352,-0.2611372172832489,0.2086806893348693,walking
1761303798415302000,-0.563953161239624,0.7569990158081055,0.0044206529855728,0.4176668226718902,-0.2660239934921264,0.1750840991735458,walking
1761303798425438700,-0.544319748878479,1.1217527389526367,0.0167727246880531,0.372464120388031,-0.2305948436260223,0.1335464864969253,walking
1761303798435575600,-0.4122199714183807,1.5013999938964844,-0.0425288788974285,0.3180987238883972,-0.1969982385635376,0.0883437842130661,walking
1761303798445712400,0.0144397020339965,1.8838253021240237,0.1426190137863159,0.2820587158203125,-0.1652341783046722,0.0394760034978389,walking
1761303798455849200,0.296288788318634,2.107574462890625,0.3299555778503418,0.2460187375545501,-0.1420219838619232,-0.0057266931980848,walking
1761303798465985800,0.4945659041404724,2.106076240539551,0.4813601374626159,0.205091968178749,-0.1255291104316711,-0.0393232926726341,walking
1761303798476122600,0.4703683257102966,1.9184207916259768,0.5053808093070984,0.1543916463851928,-0.1096470803022384,-0.0637571811676025,walking
1761303798486259500,0.4695765972137451,1.612137794494629,0.4689735770225525,0.1012479364871978,-0.0870457366108894,-0.082082599401474,walking
1761303798496396300,0.4245240688323974,1.1257286071777344,0.3715351521968841,0.0407740548253059,-0.0534491352736949,-0.0924670025706291,walking
1761303798506533000,0.4028927087783813,0.4910192489624023,0.260347306728363,-0.0038177953101694,-0.0375671051442623,-0.0863585323095321,walking
1761303798516670000,0.2792966365814209,-0.1410722732543945,0.2700592875480652,-0.0154238929972052,-0.0375671051442623,-0.0674222633242607,walking
1761303798526806800,-0.0069040060043334,-0.7776088714599609,0.355961412191391,-0.0172564350068569,-0.0479515083134174,-0.0344365127384662,walking
1761303798536943400,-0.3154218792915344,-1.284947395324707,0.2897275686264038,-0.0093154208734631,-0.0516165941953659,0.0089336410164833,walking
1761303798547080200,-0.6061183214187622,-1.6635475158691406,0.2273339927196502,0.0016798300202935,-0.0632226914167404,0.0571905747056007,walking
1761303798557217000,-0.7667217254638672,-1.7875185012817385,0.2256757915019989,0.009620844386518,-0.0717745497822761,0.1030041202902793,walking
1761303798567353900,-0.9389244318008424,-1.736475944519043,0.3308055102825165,0.0273354146629571,-0.0791047215461731,0.153704434633255,walking
1761303798577490700,-0.7701234817504883,-1.5160064697265625,0.4526078402996063,0.0303896516561508,-0.08521319180727,0.1848576515913009,walking
1761303798587627500,-0.5889137983322144,-1.136432647705078,0.5118268728256226,0.0285571087151765,-0.0907108187675476,0.1976854503154754,walking
1761303798597764400,-0.4352796375751495,-0.748652458190918,0.5152535438537598,0.021226942539215,-0.0900999680161476,0.2044047713279724,walking
1761303798607901200,-0.2267482280731201,-0.4482135772705078,0.541654646396637,0.0132859274744987,-0.0797155648469924,0.1982962936162948,walking
1761303798618037800,-0.00645512342453,-0.1990041732788086,0.6655891537666321,0.012675080448389,-0.0668877735733985,0.1921878159046173,walking
1761303798628174600,0.0851315855979919,-0.0127878189086914,0.8223240971565247,0.012675080448389,-0.0510057471692562,0.1830251067876815,walking
1761303798638311400,0.1701356172561645,0.1082782745361328,0.8920169472694397,0.008399149402976,-0.032069481909275,0.1738623976707458,walking
1761303798648448300,0.2777526378631592,0.1667613983154297,0.8716828227043152,-0.0056503373198211,-0.0186308417469263,0.1592020690441131,walking
1761303798658585000,0.4456455707550049,0.1510038375854492,0.854661226272583,-0.0209215190261602,-0.0155766047537326,0.1488176584243774,walking
1761303798668722000,0.551277756690979,-0.0507688522338867,0.7880423665046692,-0.0404686294496059,-0.0131332157179713,0.1451525837182998,walking
1761303798678858800,0.5661319494247437,-0.2828207015991211,0.7268513441085815,-0.0618482865393161,-0.0259610079228878,0.142709195613861,walking
1761303798688995300,0.6117672920227051,-0.5068283081054688,0.7209910154342651,-0.0862821787595748,-0.0503949001431465,0.1445417255163192,walking
1761303798699132200,0.7222528457641602,-0.7300662994384766,0.768284022808075,-0.1070509850978851,-0.0778830274939537,0.1384332627058029,walking
1761303798709269000,0.8576481342315674,-0.8953828811645508,0.8520596623420715,-0.1247655525803566,-0.0968192890286445,0.1237729266285896,walking
1761303798719405800,0.9092803001403807,-1.0317420959472656,0.904602825641632,-0.149199441075325,-0.1041494607925415,0.0975064933300018,walking
1761303798729542700,0.9934929609298706,-1.117666244506836,0.8455122113227844,-0.1907370537519455,-0.1029277667403221,0.0797919258475303,walking
1761303798739679500,0.9492111206054688,-1.1412849426269531,0.7852872014045715,-0.2011214643716812,-0.0729962438344955,0.0736834481358528,walking
1761303798749816000,0.9315555095672609,-1.1051712036132812,1.1883671283721924,-0.1998997628688812,-0.0839914977550506,0.071240060031414,walking
1761303798759953000,0.8450509309768677,-0.9307403564453124,0.8221924304962158,-0.2469350099563598,-0.1004843711853027,0.0681858286261558,walking
1761303798770089700,0.8171149492263794,-0.625758171081543,0.3706924021244049,-0.2548760175704956,-0.1029277667403221,0.0578014217317104,walking
1761303798780226600,0.9305403232574464,-0.38629150390625,0.6882067918777466,-0.2402156889438629,-0.115144707262516,0.0523037947714328,walking
1761303798790363400,0.7540749311447144,-0.3049583435058594,0.5441715717315674,,,,walking
1761303798800500200,0.6452152729034424,-0.1594419479370117,0.5480073094367981,-0.2457133084535598,-0.1114796251058578,0.0584122687578201,walking
1761303798810637000,0.6439098119735718,-1.62124633789e-05,0.5298811197280884,-0.249989241361618,-0.1053711548447609,0.0602448098361492,walking
1761303798820774000,0.6025842428207397,0.2137594223022461,0.4633504152297973,-0.2573194205760956,-0.1017060652375221,0.0547471866011619,walking
1761303798830910500,0.5050140619277954,0.2669153213500976,0.4326010346412658,-0.2579302489757538,-0.0864348858594894,0.0461953245103359,walking
1761303798841047300,0.4236916303634643,0.2290306091308593,0.4228168427944183,-0.2383831441402435,-0.0729962438344955,0.0303132943809032,walking
1761303798851184000,0.3893282413482666,0.1957902908325195,0.474141389131546,-0.1986780762672424,-0.0638335421681404,0.0168746560811996,walking
1761303798861321000,0.2603369951248169,0.0551013946533203,0.5098870992660522,-0.1601946949958801,-0.0540599822998046,0.0101553360000252,walking
1761303798871457800,0.0934323072433471,-0.0374650955200195,0.4840703904628753,-0.1278197914361953,-0.0363454110920429,0.0125987250357866,walking
1761303798881594600,0.0135046243667602,-0.0486841201782226,0.4020534455776214,-0.1168245375156402,-0.0271827038377523,0.0077119464986026,walking
1761303798891731500,-0.0344754457473754,-0.0742645263671875,0.2919306755065918,-0.112548604607582,-0.0131332157179713,0.0016034740256145,walking
1761303798901868000,-0.0001574754714965,-0.1117658615112304,0.2648317813873291,-0.119878776371479,-0.0021379655227065,-0.0081700822338461,walking
1761303798912004900,0.0589791536331176,-0.1659297943115234,0.2346591055393219,-0.1247655525803566,0.0216850768774747,-0.017943637445569,walking
1761303798922141700,0.109832763671875,-0.1604156494140625,0.2687114775180816,-0.125987246632576,0.0363454110920429,-0.0319931246340274,walking
1761303798932278500,0.1251929998397827,-0.1669111251831054,0.3077703714370727,-0.119878776371479,0.0571142174303531,-0.0356582105159759,walking
1761303798942415400,0.1648190021514892,-0.2068939208984375,0.3121462166309356,-0.1052184402942657,0.0742942988872528,-0.0393232926726341,walking
1761303798952552200,0.2232449054718017,-0.1751270294189453,0.249706745147705,-0.1033858954906463,0.0883437842130661,-0.0368799045681953,walking
1761303798962688800,0.2788867950439453,-0.1864032745361328,0.1736872792243957,-0.09605573117733,0.1042258143424987,-0.0338256657123565,walking
1761303798972825600,0.2927744388580322,-0.2548036575317383,0.1079785227775573,-0.089336410164833,0.1164427623152732,-0.0228304155170917,walking
1761303798982962400,0.2889097929000854,-0.3157062530517578,0.0953772068023681,-0.0838387832045555,0.1286597102880478,-0.0118351653218269,walking
1761303798993099300,0.2795286178588867,-0.354832649230957,0.0804552435874939,-0.0820062458515167,0.1414874941110611,-0.0032833039294928,walking
1761303799003236000,0.3441259860992431,-0.3437747955322265,0.0022756457328796,-0.0716218426823616,0.1335464864969253,-0.0032833039294928,walking
1761303799013373000,0.3447238206863403,-0.3447694778442383,-0.0134246945381164,-0.0679567605257034,0.148206815123558,-0.0087809292599558,walking
1761303799023509800,0.3889036178588867,-0.3863849639892578,-0.143958181142807,-0.0685676038265228,0.1708081662654876,-0.0136677073314785,walking
1761303799033646600,0.4427788257598877,-0.358738899230957,-0.0561408400535583,-0.0587940476834774,0.1866901963949203,-0.0155002493411302,walking
1761303799043783200,0.3878225088119507,-0.3218011856079101,-0.0086591243743896,-0.0532964244484901,0.1891335844993591,-0.026495499536395,walking
1761303799053920000,0.4274944067001343,-0.2136058807373047,-0.0942038297653198,-0.0435228683054447,0.2056264579296112,-0.0393232926726341,walking
1761303799064056800,0.4322899580001831,-0.1249704360961914,-0.1198200583457946,-0.0410794764757156,0.2263952642679214,-0.0484860017895698,walking
1761303799074193700,0.3791786432266235,-0.0621061325073242,-0.1650341153144836,-0.0209215190261602,0.232503741979599,-0.046042613685131,walking
1761303799084330500,0.3533598184585571,-0.0663833618164062,-0.1229686737060546,-0.0007635590736754,0.2477749139070511,-0.0503185428678989,walking
1761303799094467300,0.3961427211761474,-0.0353813171386718,-0.1503064632415771,0.0193943995982408,0.2508291602134704,-0.0490968488156795,walking
1761303799104604200,0.4087752103805542,0.01605224609375,-0.2086321711540222,0.035887274891138,0.2581593096256256,-0.060702946037054,walking
1761303799114741000,0.4502377510070801,0.000533103942871,-0.2434876859188079,0.0499367639422416,0.2630461156368255,-0.0686439573764801,walking
1761303799124877600,0.4188129901885986,-0.0831623077392578,-0.2907535433769226,0.0633754059672355,0.2777064442634582,-0.075974129140377,walking
1761303799135014400,0.3983103036880493,-0.1138162612915039,-0.322615385055542,0.0694838762283325,0.2868691384792328,-0.0857476815581321,walking
1761303799145151200,0.3786606788635254,-0.1228656768798828,-0.3039112687110901,0.0755923464894294,0.2874799966812134,-0.0912453085184097,walking
1761303799155288000,0.36052405834198,-0.1436710357666015,-0.252538114786148,0.0762031972408294,0.2917559146881103,-0.1034622564911842,walking
1761303799165425000,0.3932168483734131,-0.1524620056152343,-0.2447103559970855,0.0737598091363906,0.2996969223022461,-0.1144575029611587,walking
1761303799175561700,0.4077602624893188,-0.175394058227539,-0.2554251253604889,0.0780357345938682,0.3009186387062073,-0.1272853016853332,walking
1761303799185698300,0.3852505683898926,-0.2168855667114257,-0.2656275331974029,0.081089973449707,0.2996969223022461,-0.1364480108022689,walking
1761303799195835100,0.3962659835815429,-0.2341766357421875,-0.2869044840335846,0.0871984437108039,0.3076379597187042,-0.1382805556058883,walking
1761303799205972000,0.3978506326675415,-0.2629995346069336,-0.2999053001403808,0.0963611528277397,0.3125247359275818,-0.1401130855083465,walking
1761303799216108800,0.4372085332870483,-0.2325525283813476,-0.2548439502716064,0.1097997948527336,0.3113030195236206,-0.1419456303119659,walking
1761303799226245600,0.4223101139068603,-0.2545413970947265,-0.1757568120956421,0.1281252056360244,0.3100813329219818,-0.1480541080236435,walking
1761303799236382500,0.4077162742614746,-0.2620582580566406,-0.1654738783836364,0.135455384850502,0.3058054149150848,-0.1492757946252823,walking
1761303799246519300,0.3930858373641968,-0.2199745178222656,-0.185526430606842,0.1397313177585601,0.3058054149150848,-0.1468324065208435,walking
1761303799256656100,0.3503488302230835,-0.1456203460693359,-0.2211475521326065,0.1440072357654571,0.2935884594917297,-0.1468324065208435,walking
1761303799266792700,0.4284605979919433,-0.1125068664550781,-0.1807456314563751,0.1446180939674377,0.2929776310920715,-0.1480541080236435,walking
1761303799276929500,0.4942880868911743,-0.0823974609375,-0.1542258262634277,0.1537808030843734,0.2929776310920715,-0.1566059589385986,walking
1761303799287066400,0.5574659109115601,-0.1140584945678711,-0.1304486691951751,0.1543916463851928,0.2960318624973297,-0.1651578247547149,walking
1761303799297203200,0.5254759788513184,-0.1522274017333984,-0.140054702758789,0.1531699448823928,0.2899233698844909,-0.1663795262575149,walking
1761303799307340000,0.4818620681762695,-0.1614551544189453,-0.1395736634731292,0.1568350344896316,0.2777064442634582,-0.1633252799510955,walking
1761303799317476900,0.4385652542114258,-0.1587028503417968,-0.1714207082986831,0.1611109673976898,0.2587701678276062,-0.1602710485458374,walking
1761303799327613700,0.4126992225646972,-0.1630802154541015,-0.1594425737857818,0.1678302884101867,0.2355579733848571,-0.1639361381530761,walking
1761303799337750300,0.4038105010986328,-0.1273317337036132,-0.0863947421312332,0.1659977436065673,0.2147891670465469,-0.1657686680555343,walking
1761303799347887000,0.399655818939209,-0.1580467224121093,-0.0168023705482482,0.1659977436065673,0.2056264579296112,-0.1651578247547149,walking
1761303799358024000,0.405123233795166,-0.1741008758544922,-0.0284141302108764,0.1653869003057479,0.2019613683223724,-0.1669903695583343,walking
1761303799368160800,0.4368157386779785,-0.0698299407958984,-0.0750457793474197,0.1653869003057479,0.1940203607082367,-0.1718771457672119,walking
1761303799378297600,0.4724714159965515,-0.0567083358764648,-0.1157189160585403,0.1696628332138061,0.1903552711009979,-0.1700446009635925,walking
1761303799388434400,0.4054361581802368,-0.0907440185546875,-0.1539099812507629,0.1635543555021286,0.1879118829965591,-0.1614927500486374,walking
1761303799398571300,0.3831625580787658,-0.079345703125,-0.1722518056631088,0.1678302884101867,0.1934095174074173,-0.1504974961280822,walking
1761303799408708000,0.3482116460800171,-0.0703401565551757,-0.201336458325386,0.1751604527235031,0.1940203607082367,-0.1376696974039077,walking
1761303799418844700,0.3151552081108093,-0.0401687622070312,-0.2810725271701813,0.181879773736,0.1952420622110366,-0.1272853016853332,walking
1761303799428981500,0.2647123336791992,-0.0362234115600585,-0.4081013202667236,0.1904316395521164,0.1982962936162948,-0.1126249656081199,walking
1761303799439118300,0.2561907172203064,-0.0299053192138671,-0.2848332822322845,0.2490729689598083,0.1995179802179336,-0.099797174334526,walking
1761303799449255200,0.242984652519226,0.1834964752197265,0.1167158186435699,0.2948864996433258,0.153704434633255,-0.099797174334526,walking
1761303799459392000,0.0498213171958923,0.7016992568969727,-0.1367276310920715,0.3046600818634033,0.10178242623806,-0.1120141148567199,walking
1761303799469528800,0.0215893983840942,1.3760108947753906,-0.4304949939250946,0.3034383654594421,0.0749051421880722,-0.1291178464889526,walking
1761303799479665700,0.1823017597198486,1.9777812957763672,-0.4284958839416504,0.263733297586441,0.0326803289353847,-0.1547734290361404,walking
1761303799489802500,0.3101313710212707,2.447176933288574,-0.4470807611942291,0.2429644912481308,0.0082464376464486,-0.158438503742218,walking
1761303799499939000,0.306263267993927,2.9331111907958984,-0.0393650643527507,0.2228065431118011,0.0137440636754035,-0.1614927500486374,walking
1761303799510076000,0.4237416982650757,3.0358123779296875,0.2787096500396728,0.1751604527235031,0.0375671051442623,-0.1572168171405792,walking
1761303799520212700,0.4962455034255981,2.9090147018432617,0.4668492674827575,0.1305686086416244,0.0920088663697242,-0.1645469814538955,walking
1761303799530349600,0.4944568872451782,2.30035400390625,0.5680497288703918,0.1055238619446754,0.1366007179021835,-0.1639361381530761,walking
1761303799540486400,0.4841520190238952,1.4643487930297852,0.5783632397651672,0.1085781008005142,0.1628671437501907,-0.1504974961280822,walking
1761303799550623200,0.4064169526100158,0.3778724670410156,0.5443199276924133,0.1183516532182693,0.1598129123449325,-0.1205659806728363,walking
1761303799560760000,0.2029901146888733,-0.6885156631469727,0.4071715176105499,0.134233683347702,0.1304922401905059,-0.0790283605456352,walking
1761303799570896600,-0.0322244763374328,-1.5918855667114258,0.2230559587478637,0.134233683347702,0.0816244632005691,-0.0655897259712219,walking
1761303799581033500,0.0659512281417846,-1.9338083267211916,0.1299439072608947,0.1061347126960754,0.0571142174303531,-0.026495499536395,walking
1761303799591170300,-0.2118292450904846,-2.4132442474365234,0.1418394148349762,0.0780357345938682,0.0412321910262107,-0.017943637445569,walking
1761303799601307100,-0.1982393860816955,-2.499997615814209,0.3613147735595703,0.0523801520466804,0.032069481909275,-0.0350473597645759,walking
1761303799611444000,-0.1369986534118652,-2.2930727005004883,0.5444415807723999,0.0285571087151765,0.0253501608967781,-0.0582595579326152,walking
1761303799621580800,-0.1318199038505554,-1.9461698532104488,0.6255512833595276,0.0151184694841504,0.0131332157179713,-0.0961320847272872,walking
1761303799631717600,-0.1835415363311767,-1.5837345123291016,0.7454191446304321,-0.0013744062744081,0.0094681326299905,-0.1242310628294944,walking
1761303799641854500,-0.2617610096931457,-1.2940740585327148,0.8634936213493347,-0.0166455879807472,0.0033596600405871,-0.1443890184164047,walking
1761303799651991000,-0.3890068829059601,-1.0339088439941406,0.9446234703063964,-0.0245866030454635,0.0070247435942292,-0.1535517275333404,walking
1761303799662127900,-0.5176999568939209,-0.7840385437011719,0.9780752062797546,-0.0453554093837738,0.0113006746396422,-0.159660205245018,walking
1761303799672264700,-0.5629806518554688,-0.592097282409668,1.0174524784088137,-0.0563506595790386,0.0198525357991457,-0.1547734290361404,walking
1761303799682401500,-0.5889281034469604,-0.4818449020385742,1.0907901525497437,-0.0734543800354003,0.027793550863862,-0.1559951156377792,walking
1761303799692538400,-0.6437076330184937,-0.4172229766845703,1.1213185787200928,-0.0936123430728912,0.0314586348831653,-0.1535517275333404,walking
1761303799702675200,-0.6548677682876587,-0.3360595703125,1.1824581623077393,-0.0978882759809494,0.0216850768774747,-0.158438503742218,walking
1761303799712812000,-0.6866462230682373,-0.2981100082397461,1.2161707878112793,-0.1070509850978851,0.0369562581181526,-0.1669903695583343,walking
1761303799722948600,-0.7468770742416382,-0.2960424423217773,1.397535800933838,-0.1094943732023239,0.0485623553395271,-0.1682120710611343,walking
1761303799733085400,-0.8940627574920654,-0.3344612121582031,1.4891588687896729,-0.119267925620079,0.0418430380523204,-0.1566059589385986,walking
1761303799743222300,-1.0691380500793457,-0.3009834289550781,1.4017821550369265,-0.1400367319583892,0.0430647321045398,-0.1364480108022689,walking
1761303799753359000,-1.17730975151062,-0.2244024276733398,1.344151258468628,-0.1553079187870025,0.0461189672350883,-0.1083490327000618,walking
1761303799763496000,-1.1349337100982666,-0.1406707763671875,1.1994167566299438,-0.1681357026100158,0.0510057471692562,-0.0826934501528739,walking
1761303799773632800,-0.9957735538482666,0.0338163375854492,1.0757278203964231,-0.1748550236225128,0.0810136198997497,-0.0484860017895698,walking
1761303799783769600,-0.8426766395568848,0.2271289825439453,0.9783084392547609,-0.1772984117269516,0.0968956500291824,-0.0240521114319562,walking
1761303799793906400,-0.6372772455215454,0.4033889770507812,0.9287991523742676,-0.1772984117269516,0.1170536056160926,-0.0014507622690871,walking
1761303799804043000,-0.4849399030208587,0.4934005737304687,0.9006307125091553,-0.1785201132297516,0.1469851285219192,0.0229831282049417,walking
1761303799814179800,-0.305740475654602,0.5427255630493164,0.7898029088973999,-0.1925695985555648,0.1732515543699264,0.0376434624195098,walking
1761303799824316700,-0.1160852015018463,0.6254854202270508,0.7041758894920349,-0.2047865390777588,0.1970745921134948,0.0486387126147747,walking
1761303799834453500,0.1601164937019348,0.5911617279052734,0.6373306512832642,-0.2090624719858169,0.2166217118501663,0.0626882016658783,walking
1761303799844590300,0.3865184187889099,0.4949789047241211,0.549046516418457,-0.2096733152866363,0.224562719464302,0.0767376869916915,walking
1761303799854727200,0.5620768070220947,0.2940540313720703,0.445891261100769,-0.2170034945011139,0.2282278090715408,0.0785702317953109,walking
1761303799864864000,0.6736010313034058,0.0554428100585937,0.3240563869476318,-0.2157817929983139,0.2184542566537857,0.0700183659791946,walking
1761303799875000800,0.6683328151702881,-0.1992216110229492,0.199303925037384,-0.2249445021152496,0.2031830698251724,0.065131589770317,walking
1761303799885137400,0.5107488632202148,-0.5415792465209961,0.0942778289318084,-0.2237228155136108,0.1701973229646682,0.0596339628100395,walking
1761303799895274200,0.2642056345939636,-0.7924385070800781,0.0685254335403442,-0.1998997628688812,0.1335464864969253,0.0449736304581165,walking
1761303799905411000,0.060292363166809,-0.8947162628173828,0.0877183377742767,-0.1834068894386291,0.0920088663697242,0.0297024473547935,walking
1761303799915548000,-0.1196933388710022,-0.8822669982910156,0.1064644753932952,-0.1663031727075576,0.0455081202089786,0.0089336410164833,walking
1761303799925684700,-0.2679953873157501,-0.7864608764648438,0.1076796948909759,-0.1528645306825637,-0.0003054236294701,-0.0185544863343238,walking
1761303799935821600,-0.3900395631790161,-0.6408929824829102,0.0623892843723297,-0.1430909633636474,-0.0473406612873077,-0.0405449867248535,walking
1761303799945958400,-0.512929379940033,-0.5005588531494141,0.0301721394062042,-0.1351499557495117,-0.08582404255867,-0.0545944720506668,walking
1761303799956095200,-0.4700288772583008,-0.3009204864501953,0.0488370656967163,-0.1296523362398147,-0.1041494607925415,-0.0625354871153831,walking
1761303799966231800,-0.4698665738105774,-0.1710777282714843,0.092259794473648,-0.1211004704236984,-0.1175880953669548,-0.0668114200234413,walking
1761303799976368600,-0.4310107231140136,-0.0678901672363281,0.1414839625358581,-0.1094943732023239,-0.115144707262516,-0.0716981962323188,walking
1761303799986505500,-0.4735180139541626,0.003976821899414,0.2200819849967956,-0.1009425073862075,-0.1145338639616966,-0.0710873529314994,walking
1761303799996642300,-0.5376663208007812,0.0613117218017578,0.2423159182071685,-0.089336410164833,-0.1145338639616966,-0.0686439573764801,walking
1761303800006779100,-0.6483513712882996,0.0302305221557617,0.2429628670215606,-0.089336410164833,-0.109036237001419,-0.0552053228020668,walking
1761303800016916000,-0.7721179127693176,-0.00311279296875,0.2228487133979797,-0.0820062458515167,-0.1108687743544578,-0.0411558337509632,walking
1761303800027052800,-0.7993869185447693,-0.060150146484375,0.2362264990806579,-0.0820062458515167,-0.1133121699094772,-0.0240521114319562,walking
1761303800037189600,-0.813798189163208,-0.0716199874877929,0.2168740332126617,-0.0746760740876197,-0.115144707262516,-0.0087809292599558,walking
1761303800047326200,-0.8320728540420532,-0.130706787109375,0.1993894577026367,-0.0801737010478973,-0.1114796251058578,0.0064902519807219,walking
1761303800057463000,-0.8231374621391296,-0.1560564041137695,0.1638551354408264,-0.0936123430728912,-0.1041494607925415,0.0217614341527223,walking
1761303800067600000,-0.7700392007827759,-0.19073486328125,0.1124007105827331,-0.1094943732023239,-0.08521319180727,0.0345892272889614,walking
1761303800077736700,-0.6800918579101562,-0.2275762557983398,0.1125243306159973,-0.119878776371479,-0.0742179453372955,0.0474170185625553,walking
1761303800087873500,-0.6102769374847412,-0.2856855392456054,0.0611675977706909,-0.1333174109458923,-0.0748287886381149,0.0553580336272716,walking
1761303800098010400,-0.5532410144805908,-0.3530311584472656,0.0198671817779541,-0.1528645306825637,-0.0613901503384113,0.0626882016658783,walking
1761303800108147200,-0.5060964226722717,-0.4010848999023437,-0.0114566683769226,-0.1485885977745056,-0.0412321910262107,0.0657424330711364,walking
1761303800118284000,-0.4259555041790008,-0.4777412414550781,0.4248160123825073,-0.1308740228414535,-0.0534491352736949,0.0681858286261558,walking
1761303800128420600,-0.3915386199951172,-0.4681205749511719,0.1612907648086547,-0.1461452096700668,-0.0772721767425537,0.0681858286261558,walking
1761303800138557400,-0.4049407243728637,-0.3844566345214844,-0.3142808675765991,-0.149199441075325,-0.1004843711853027,0.0663532838225364,walking
1761303800148694300,-0.2957010567188263,-0.3557195663452148,-0.0206448435783386,-0.1162136942148208,-0.1414111405611038,0.0742942988872528,walking
1761303800158831000,-0.3987335860729217,-0.4687070846557617,0.0807414650917053,-0.1076618283987045,-0.1640124917030334,0.0822353139519691,walking
1761303800168968000,-0.4058030843734741,-0.4220867156982422,-0.0123850107192993,-0.1058292910456657,-0.168899267911911,0.0810136198997497,walking
1761303800179104800,-0.2286787331104278,-0.2844371795654297,0.1290234327316284,-0.1064401343464851,-0.1627907902002334,0.0767376869916915,walking
1761303800189241600,-0.1666553914546966,-0.1466903686523437,0.0645251870155334,-0.1174353882670402,-0.1579040139913559,0.0681858286261558,walking
1761303800199378400,-0.1450986862182617,-0.0748271942138671,0.034184455871582,-0.1162136942148208,-0.1566823273897171,0.0620773509144783,walking
1761303800209515300,-0.1703801155090332,-0.0726251602172851,-0.0050030946731567,-0.0923906490206718,-0.1707318127155304,0.0547471866011619,walking
1761303800219651800,-0.1864191889762878,-0.110727310180664,0.0241236090660095,-0.051463883370161,-0.186613842844963,0.0596339628100395,walking
1761303800229788700,-0.2479313611984253,-0.1272573471069336,0.0383911728858947,-0.0068720318377017,-0.2031067162752151,0.0687966719269752,walking
1761303800239925500,-0.3635843992233276,-0.1060037612915039,-0.0102739930152893,0.0248920265585184,-0.222042977809906,0.0779593810439109,walking
1761303800250062300,-0.4215483665466308,-0.0145397186279296,-0.0659629702568054,0.0401632077991962,-0.2360924631357193,0.0846787020564079,walking
1761303800260199200,-0.3965648412704468,0.0942411422729492,-0.1486021876335144,0.0432174429297447,-0.2470877170562744,0.0883437842130661,walking
1761303800270336000,-0.3836424946784973,0.088200569152832,-0.1897621154785156,0.0438282899558544,-0.2489202618598938,0.0871220901608467,walking
1761303800280472600,-0.3739826083183288,0.0940504074096679,-0.1637714803218841,0.0493259169161319,-0.2489202618598938,0.094452254474163,walking
1761303800290609400,-0.3670011460781097,0.1020565032958984,-0.1081552505493164,0.0676513314247131,-0.2501419484615326,0.0962847992777824,walking
1761303800300746200,-0.3459567427635193,0.1428003311157226,-0.0801817774772644,0.0829225182533264,-0.2550287246704101,0.0956739485263824,walking
1761303800310883000,-0.313831478357315,0.1710357666015625,-0.084117591381073,0.0988045409321785,-0.2470877170562744,0.0999498814344406,walking
1761303800321020000,-0.3669555485248565,0.1093196868896484,-0.1508845686912536,0.1055238619446754,-0.2458660155534744,0.0999498814344406,walking
1761303800331156700,-0.384509265422821,0.032139778137207,-0.1987833380699157,0.1183516532182693,-0.2470877170562744,0.1066692024469375,walking
1761303800341293600,-0.409103661775589,-0.0272836685180664,-0.2095854878425598,0.1281252056360244,-0.2495311051607132,0.1097234413027763,walking
1761303800351430400,-0.4126986861228943,-0.0645179748535156,-0.2403113842010498,0.1385096162557602,-0.2580829560756683,0.1158319115638732,walking
1761303800361567200,-0.3601210415363312,-0.0634546279907226,-0.27188241481781,0.1482831686735153,-0.2623589038848877,0.1201078444719314,walking
1761303800371704000,-0.3539187014102936,-0.0294141769409179,-0.3629606962203979,0.158667579293251,-0.2837385535240173,0.1274380087852478,walking
1761303800381840600,-0.3559119403362274,-0.0264186859130859,-0.4595867991447449,0.1580567210912704,-0.2886253297328949,0.1384332627058029,walking
1761303800391977500,-0.3615220189094543,-0.0398721694946289,-0.4801638126373291,0.1727170646190643,-0.2886253297328949,0.1524827480316162,walking
1761303800402114300,-0.3066170215606689,-0.0601129531860351,-0.4045349061489105,0.1892099380493164,-0.2965663373470306,0.1610346138477325,walking
1761303800412251100,-0.2956900596618652,-0.0469884872436523,-0.4275369644165039,0.2032594233751297,-0.3106158375740051,0.1683647781610489,walking
1761303800422388000,-0.3345648050308227,-0.022292137145996,-0.499748021364212,0.2246390730142593,-0.3210002481937408,0.1708081662654876,walking
1761303800432524800,-0.3618857562541961,-0.019078254699707,-0.5268054008483887,0.2399102598428726,-0.3271087110042572,0.1805817186832428,walking
1761303800442661600,-0.4323426783084869,-0.0298757553100585,-0.5543574690818787,0.2533488869667053,-0.3344388604164123,0.1940203607082367,walking
1761303800452798200,-0.4480306208133697,0.009068489074707,-0.6101558208465576,0.2716743052005768,-0.3436015844345093,0.2007396817207336,walking
1761303800462935000,-0.4725163280963897,0.0544891357421875,-0.6272676587104797,0.2954973578453064,-0.3533751368522644,0.1982962936162948,walking
1761303800473071900,-0.4513443410396576,0.1486568450927734,-0.5610576868057251,0.3260397315025329,-0.3497100472450256,0.1946312040090561,walking
1761303800483208700,-0.6037126183509827,0.4413909912109375,-0.2365232110023498,0.376740038394928,-0.3723114132881164,0.1854684948921203,walking
1761303800493345500,-0.783649742603302,0.9622421264648438,0.2272417247295379,0.4115583300590515,-0.3643703758716583,0.1579803675413131,walking
1761303800503482400,-0.7455369234085083,1.5047502517700195,0.20891635119915,0.3797942698001861,-0.305118203163147,0.1030041202902793,walking
1761303800513619200,-0.3592798113822937,1.9108190536499023,-0.0778799727559089,0.3321481943130493,-0.2409792393445968,0.0523037947714328,walking
1761303800523756000,0.1145135760307312,2.233431816101074,-0.0705650076270103,0.319320410490036,-0.1878355294466018,0.0235939752310514,walking
1761303800533892900,0.3514738082885742,2.3761768341064453,0.2418141514062881,0.316877007484436,-0.1420219838619232,0.0162638090550899,walking
1761303800544029400,0.268511950969696,2.296506881713867,0.5945972204208374,0.3028275370597839,-0.0907108187675476,0.009544488042593,walking
1761303800554166300,0.154253602027893,2.1428956985473637,0.7923731207847595,0.2698417901992798,-0.0424538850784301,-0.0100026242434978,walking
1761303800564303000,0.1732812523841858,1.8269405364990237,0.8312383890151978,0.2179197669029235,0.0064138961024582,-0.0509293898940086,walking
1761303800574440000,0.2676358222961426,1.301274299621582,0.6681678891181946,0.1611109673976898,0.0485623553395271,-0.0888019204139709,walking
1761303800584576800,0.2310932278633117,0.5019998550415039,0.4696606397628784,0.1152974218130111,0.0767376869916915,-0.1199551299214363,walking
1761303800594713600,0.1408643722534179,-0.369206428527832,0.4401191473007202,0.104913018643856,0.0840678513050079,-0.1077381819486618,walking
1761303800604850400,-0.1874496340751648,-1.2333087921142578,0.5005002617835999,0.0951394587755203,0.0749051421880722,-0.0888019204139709,walking
1761303800614987300,-0.541756272315979,-1.8848896026611328,0.4370871782302856,0.0762031972408294,0.0694075226783752,-0.0594812519848346,walking
1761303800625124000,-0.7412019371986389,-2.219348907470703,0.3488039076328277,0.0633754059672355,0.0516165941953659,-0.0228304155170917,walking
1761303800635260700,-0.8024485111236572,-2.270933151245117,0.2866919040679931,0.0584886260330677,0.0290152449160814,0.009544488042593,walking
1761303800645397500,-0.7374131083488464,-2.126340866088867,0.3634004890918731,0.0584886260330677,0.0082464376464486,0.0382543094456195,walking
1761303800655534300,-0.6274517774581909,-1.8003902435302734,0.5074843764305115,0.0652079433202743,0.0039705070666968,0.065131589770317,walking
1761303800665671200,-0.5108809471130371,-1.393840789794922,0.7110716104507446,0.0664296373724937,-0.0015271181473508,0.0920088663697242,walking
1761303800675808000,-0.3337965011596679,-0.9858102798461914,0.7897441387176514,0.0645971000194549,0.0033596600405871,0.1048366576433181,walking
1761303800685944800,0.0013498663902282,-0.5977926254272461,0.9127103686332704,0.0572669319808483,0.0222959257662296,0.1194969937205314,walking
1761303800696081700,0.2177590727806091,-0.3611259460449219,1.0010826587677002,0.0499367639422416,0.0369562581181526,0.1280488520860672,walking
1761303800706218200,0.3491120934486389,-0.184671401977539,1.0575594902038574,0.0444391369819641,0.0461189672350883,0.1372115612030029,walking
1761303800716355000,0.4441249966621399,-0.1376199722290039,1.1240267753601074,0.0267245676368474,0.0503949001431465,0.1390441060066223,walking
1761303800726492000,0.5204232335090637,-0.1480846405029297,1.0398844480514526,0.0022906772792339,0.0430647321045398,0.1329356282949447,walking
1761303800736628700,0.6500648260116577,-0.1801538467407226,0.9406713247299194,-0.0319167710840702,0.0345128700137138,0.1231620758771896,walking
1761303800746765600,0.8252105116844177,-0.2886219024658203,0.9496485590934752,-0.0520747303962707,0.0229067727923393,0.118886150419712,walking
1761303800756902400,0.9241267442703248,-0.4781103134155273,0.9650604128837584,-0.0838387832045555,0.0149657577276229,0.1127776727080345,walking
1761303800767039200,0.9895883202552797,-0.6862640380859375,0.9280489683151244,-0.1052184402942657,0.0265718549489974,0.1103342846035957,walking
1761303800777176000,1.026667237281799,-0.7936000823974609,1.285688042640686,-0.1003316640853881,0.0229067727923393,0.1060583516955375,walking
1761303800787313000,1.0545997619628906,-0.8625202178955078,1.233513355255127,-0.1339282542467117,-0.0204633828252553,0.10178242623806,walking
1761303800797449700,1.005868434906006,-0.7284917831420898,0.6652312278747559,-0.1638597846031189,-0.0393996499478817,0.0797919258475303,walking
1761303800807586300,1.092848300933838,-0.6331253051757812,0.7953104972839355,-0.1467560529708862,-0.0699420124292373,0.0614665038883686,walking
1761303800817723100,1.0367114543914795,-0.5977134704589844,0.8269189596176147,-0.1522536724805832,-0.1017060652375221,0.0578014217317104,walking
1761303800827860000,0.8715761303901672,-0.4621391296386719,0.7594045996665955,-0.1638597846031189,-0.1029277667403221,0.0504712536931037,walking
1761303800837996800,0.8389129042625427,-0.2385892868041992,0.7867116332054138,-0.1730224788188934,-0.1059819981455802,0.0431410893797874,walking
1761303800848133600,0.7837614417076111,0.060713768005371,0.7016407251358032,-0.196845531463623,-0.0962084457278251,0.0297024473547935,walking
1761303800858270500,0.6731672883033752,0.3161458969116211,0.5806642174720764,-0.2218902707099914,-0.0760504826903343,0.0119878770783543,walking
1761303800868407300,0.6314592361450195,0.4776802062988281,0.4950479567050934,-0.2273878902196884,-0.0540599822998046,-0.0057266931980848,walking
1761303800878544000,0.5049666166305542,0.5527772903442383,0.5117547512054443,-0.2078407853841781,-0.040621344000101,-0.0167219433933496,walking
1761303800888680700,0.2922684550285339,0.5107583999633789,0.5308353304862976,-0.1821851879358291,-0.0271827038377523,-0.0112243182957172,walking
1761303800898817500,0.061991274356842,0.4331865310668945,0.527419924736023,-0.1663031727075576,-0.0125223686918616,0.0028251686599105,walking
1761303800908954400,-0.1213371753692627,0.3416471481323242,0.4736614823341369,-0.166914016008377,0.0015271181473508,0.0168746560811996,walking
1761303800919091200,-0.2255795001983642,0.1548595428466797,0.3915980160236358,-0.1644706279039383,0.0039705070666968,0.0187071971595287,walking
1761303800929228000,-0.2676922082901001,-0.0887355804443359,0.4108917415142059,-0.1540862172842025,0.0222959257662296,0.0211505871266126,walking
1761303800939364900,-0.2469872832298278,-0.3580341339111328,0.4188475608825683,-0.1467560529708862,0.0302369389683008,0.0150421140715479,walking
1761303800949501700,-0.1588296890258789,-0.5789365768432617,0.3765864670276642,-0.1455343663692474,0.0473406612873077,0.0089336410164833,walking
1761303800959638500,-0.0293526053428649,-0.7133989334106445,0.359201580286026,-0.1351499557495117,0.062000997364521,-0.0002290677221026,walking
1761303800969775400,0.1393294334411621,-0.7473392486572266,0.3326027989387512,-0.1302631795406341,0.0816244632005691,-0.0130568603053689,walking
1761303800979912000,0.2102580666542053,-0.7382631301879883,0.2996997237205505,-0.1211004704236984,0.0938414111733436,-0.0185544863343238,walking
1761303800990048800,0.2280225157737732,-0.6646585464477539,0.2545174062252044,-0.1241547018289566,0.1060583516955375,-0.0136677073314785,walking
1761303801000185600,0.2792032361030578,-0.5577802658081055,0.192437395453453,-0.1265980899333953,0.1115559786558151,-0.0136677073314785,walking
1761303801010322400,0.2893821597099304,-0.446324348449707,0.2394708842039108,-0.1351499557495117,0.1164427623152732,-0.0106134712696075,walking
1761303801020459300,0.3231299519538879,-0.3947772979736328,0.2497239708900451,-0.143701821565628,0.1158319115638732,-0.0075592347420752,walking
1761303801030596000,0.3899083733558655,-0.3528194427490234,0.230046808719635,-0.1553079187870025,0.1256054639816284,-0.0038941511884331,walking
1761303801040733000,0.4776763319969177,-0.3132705688476562,0.2048373818397522,-0.1632489264011383,0.1274380087852478,-0.0002290677221026,walking
1761303801050869500,0.462113618850708,-0.3071556091308594,0.0810284316539764,-0.1675248593091964,0.1604237556457519,0.0052685574628412,walking
1761303801061006300,0.5179921984672546,-0.3440113067626953,0.1781030297279358,-0.1577513068914413,0.1708081662654876,0.0083227939903736,walking
1761303801071143200,0.5560134649276733,-0.3591785430908203,0.2518409788608551,-0.1498102843761444,0.1708081662654876,0.0187071971595287,walking
1761303801081280000,0.4629989862442016,-0.3242301940917969,0.133616417646408,-0.1327065676450729,0.1744732409715652,0.0150421140715479,walking
1761303801091416800,0.4949368238449096,-0.2727432250976562,0.1964794993400573,-0.1149920001626014,0.1818034201860427,0.0101553360000252,walking
1761303801101553700,0.5082196593284607,-0.2381887435913086,0.1171762645244598,-0.1015533581376075,0.1873010396957397,0.0052685574628412,walking
1761303801111690500,0.5025969743728638,-0.2037868499755859,0.0777223110198974,-0.0862821787595748,0.1946312040090561,0.0034360159188508,walking
1761303801121827300,0.468183696269989,-0.1217403411865234,0.0302312672138214,-0.0716218426823616,0.1982962936162948,0.0052685574628412,walking
1761303801131964200,0.4055948853492737,0.010167121887207,-0.0373992323875427,-0.0587940476834774,0.2019613683223724,0.0016034740256145,walking
1761303801142101000,0.3728412389755249,0.1415815353393554,-0.0626924932003021,-0.0435228683054447,0.1964637488126754,-0.0087809292599558,walking
1761303801152237600,0.3321253061294555,0.1791162490844726,-0.0472723543643951,-0.0245866030454635,0.2086806893348693,-0.0234412644058465,walking
1761303801162374400,0.2934510111808777,0.1428689956665039,-0.0359024703502655,-0.0142021989449858,0.2184542566537857,-0.0368799045681953,walking
1761303801172511200,0.3113150596618652,0.0857982635498046,-0.0349752604961395,0.0029015245381742,0.2343362867832183,-0.0539836250245571,walking
1761303801182648000,0.2610982656478882,-0.0198659896850585,-0.0563234686851501,0.0175618585199117,0.2502183020114898,-0.0582595579326152,walking
1761303801192785000,0.176580011844635,-0.1167831420898437,-0.05705326795578,0.0334438867866992,0.2636569440364837,-0.0594812519848346,walking
1761303801202921700,0.0930909514427185,-0.2568464279174804,-0.0419498980045318,0.0517693050205707,0.2746522128582001,-0.0552053228020668,walking
1761303801213058600,0.0467002987861633,-0.3428888320922851,-0.0466533899307251,0.0694838762283325,0.2862583100795746,-0.0588704049587249,walking
1761303801223195400,0.1198203563690185,-0.4535188674926758,-0.052851378917694,0.0780357345938682,0.2935884594917297,-0.0692548081278801,walking
1761303801233332000,0.1694077849388122,-0.4918384552001953,-0.1190605461597442,0.0890309885144233,0.2929776310920715,-0.082082599401474,walking
1761303801243468800,0.2338035106658935,-0.5321063995361328,-0.0593499243259429,0.1146865710616111,0.3058054149150848,-0.0973537787795066,walking
1761303801253605600,0.2434860467910766,-0.5294380187988281,-0.0222191512584686,0.1348445266485214,0.3082487881183624,-0.1028514057397842,walking
1761303801263742500,0.263347327709198,-0.4398393630981445,-0.0500373542308807,0.1513374149799347,0.3119138777256012,-0.1126249656081199,walking
1761303801273879300,0.2996151447296142,-0.2858505249023437,-0.0882168114185333,0.1611109673976898,0.3143572807312011,-0.1156791970133781,walking
1761303801284016000,0.3233640193939209,-0.1720705032348632,-0.1158567368984222,0.1666085869073867,0.3216874301433563,-0.1144575029611587,walking
1761303801294153000,0.4012972712516784,-0.0955362319946289,-0.1116651594638824,0.1745496094226837,0.3247416615486145,-0.1193442866206169,walking
1761303801304289800,0.4637138843536377,-0.050882339477539,-0.0662542134523391,0.1879882365465164,0.3314609825611114,-0.1187334358692169,walking
1761303801314426400,0.4679580926895141,-0.0940275192260742,-0.0249837934970855,0.2020377367734909,0.3381803035736084,-0.1126249656081199,walking
1761303801324563200,0.4787690639495849,-0.0751924514770507,-0.0094828903675079,0.2099787443876266,0.3351260721683502,-0.1089598834514617,walking
1761303801334700000,0.4920175671577453,-0.0920095443725586,-0.056372120976448,0.2234173864126205,0.3229091465473175,-0.1126249656081199,walking
1761303801344836900,0.5899984240531921,-0.0991468429565429,-0.0700339376926422,0.2411319613456726,0.3113030195236206,-0.1156791970133781,walking
1761303801354973700,0.606164813041687,-0.1720476150512695,-0.0774706900119781,0.2539597451686859,0.3076379597187042,-0.1150683537125587,walking
1761303801365110500,0.6122587323188782,-0.2060146331787109,-0.1227857992053031,0.2741177082061767,0.3015294671058655,-0.1120141148567199,walking
1761303801375247400,0.5832398533821106,-0.2135066986083984,-0.186706468462944,0.2912214398384094,0.283204048871994,-0.1162900477647781,walking
1761303801385384200,0.6157609224319458,-0.2513933181762695,-0.241920918226242,0.2967190444469452,0.2783172726631164,-0.1156791970133781,walking
1761303801395521000,0.5603561401367188,-0.2296934127807617,-0.3257331550121307,0.3071034550666809,0.2691545784473419,-0.1138466596603393,walking
1761303801405657900,0.5178374648094177,-0.1847505569458007,-0.2921183109283447,0.3370349705219269,0.255715936422348,-0.1169008910655975,walking
1761303801415794700,0.4021729230880737,-0.1356563568115234,-0.2813153564929962,0.3486410677433014,0.2373905181884765,-0.1089598834514617,walking
1761303801425931300,0.2951086759567261,-0.089569091796875,-0.2708751559257507,0.3718532621860504,0.2477749139070511,-0.105905644595623,walking
1761303801436068000,0.208257794380188,-0.0652332305908203,0.115244373679161,0.4127800464630127,0.2593810260295868,-0.1028514057397842,walking
1761303801446205000,0.2171976566314697,-0.0812082290649414,-0.0174429193139076,0.3938437700271606,0.2227301746606826,-0.105294793844223,walking
1761303801456341800,0.2770132422447204,0.1408748626708984,-0.6675313115119934,0.399952232837677,0.2160108685493469,-0.122398518025875,walking
1761303801466478600,0.508529007434845,0.1334962844848632,-0.2812201976776123,0.4634803533554077,0.2172325551509857,-0.1321720778942108,walking
1761303801476615400,0.5398673415184021,-0.0947151184082031,-0.3472130298614502,0.4750864505767822,0.1836359500885009,-0.123009368777275,walking
1761303801486752300,0.4057697653770447,0.025115966796875,-0.5325449109077454,0.5630484819412231,0.1256054639816284,-0.1211768239736557,walking
1761303801496889000,0.2334940433502197,0.4334192276000976,0.2095981687307357,0.695602297782898,0.0761268362402916,-0.1162900477647781,walking
1761303801507025700,-0.1241762042045593,0.9980669021606444,0.4483835995197296,0.7518002390861511,0.0479515083134174,-0.1162900477647781,walking
1761303801517162500,-0.2270373702049255,1.6687469482421875,-0.0731105208396911,0.6949914693832397,0.0345128700137138,-0.1327829211950302,walking
1761303801527299300,-0.0575360655784606,2.418924331665039,-0.6613650321960449,0.6180247068405151,0.0180199947208166,-0.1633252799510955,walking
1761303801537436200,0.1736093759536743,3.155308723449707,-0.4823604226112366,0.5832064151763916,-0.0125223686918616,-0.1853157877922058,walking
1761303801547573000,0.4268497228622436,3.5985727310180664,0.0464862585067749,0.5496098399162292,-0.032069481909275,-0.1957001835107803,walking
1761303801557709800,0.3698150515556335,3.477004051208496,0.4277340769767761,0.4970769584178924,-0.0064138961024582,-0.2054737508296966,walking
1761303801567846700,0.4946335554122925,3.233707427978516,0.7826152443885803,0.4366030693054199,0.0387887991964817,-0.2109713703393936,walking
1761303801577983500,0.4266844987869262,2.6397762298583984,0.8677845597267151,0.3773508965969085,0.0773485377430915,-0.1999761164188385,walking
1761303801588120000,0.3420491218566894,1.7485666275024414,0.8647547364234924,0.3119902312755584,0.1231620758771896,-0.1785964667797088,walking
1761303801598257000,0.277118444442749,0.5846490859985352,0.8722310066223145,0.2509055137634277,0.1475959718227386,-0.1608818918466568,walking
1761303801608393700,0.2481207847595214,-0.5550203323364258,0.7750306129455566,0.2063136547803878,0.1384332627058029,-0.1358371526002884,walking
1761303801618530600,0.1228174567222595,-1.603531837463379,0.6818304061889648,0.1714953631162643,0.1311030983924865,-0.1028514057397842,walking
1761303801628667400,-0.0497697591781616,-2.405902862548828,0.7032507658004761,0.1433963924646377,0.1060583516955375,-0.0784175172448158,walking
1761303801638804200,-0.1720006763935089,-2.786121368408203,0.7272815108299255,0.1189625039696693,0.0565033704042434,-0.0716981962323188,walking
1761303801648941000,-0.1636621654033661,-2.814700126647949,0.7887243032455444,0.0847550556063652,0.0131332157179713,-0.0808609053492546,walking
1761303801659078000,-0.2523990273475647,-2.6429762840271,0.937292218208313,0.0481042228639125,-0.0143549107015132,-0.0869693756103515,walking
1761303801669214700,-0.3501268327236175,-2.3647336959838867,0.9655493497848512,-0.0068720318377017,-0.038177952170372,-0.0881910696625709,walking
1761303801679351600,-0.3227072656154632,-1.944386959075928,1.027155876159668,-0.0563506595790386,-0.0577250644564628,-0.0936886966228485,walking
1761303801689488400,-0.3299451470375061,-1.5351839065551758,1.0858241319656372,-0.1094943732023239,-0.0742179453372955,-0.1046839505434036,walking
1761303801699625000,-0.3725913763046264,-1.2037267684936523,1.1529368162155151,-0.1443126648664474,-0.0925433561205864,-0.1071273386478424,walking
1761303801709761800,-0.467661440372467,-0.9761228561401368,1.2156611680984497,-0.1846285909414291,-0.0546708293259143,-0.1107924208045005,walking
1761303801719898600,-0.5126346945762634,-0.8233175277709961,1.392176866531372,-0.2133384048938751,-0.0155766047537326,-0.1114032715559005,walking
1761303801730035500,-0.5319947600364685,-0.7616987228393555,1.611642599105835,-0.2322746664285659,0.0033596600405871,-0.105294793844223,walking
1761303801740172300,-0.5427374243736267,-0.6167669296264648,1.6245328187942505,-0.2615953385829925,0.027793550863862,-0.0973537787795066,walking
1761303801750309000,-0.6449225544929504,-0.4507303237915039,1.5828510522842407,-0.2805316150188446,0.0516165941953659,-0.0918561592698097,walking
1761303801760446000,-0.7358644008636475,-0.244389533996582,1.6005895137786863,-0.2835858464241028,0.0681858286261558,-0.0833042934536933,walking
1761303801770582800,-0.7165504693984985,-0.0407400131225585,1.5800340175628662,-0.2835858464241028,0.0761268362402916,-0.0613137930631637,walking
1761303801780719400,-0.956362247467041,-0.0164737701416015,1.513530731201172,-0.2903051674365997,0.0675749778747558,-0.0246629584580659,walking
1761303801800993000,-0.8940612077713013,0.230504035949707,1.0953367948532104,-0.3037438094615936,0.038177952170372,0.033367533236742,walking
1761303801811129900,-0.6756262183189392,0.3167333602905273,0.9773659110069276,-0.3165715932846069,0.0485623553395271,0.056579727679491,walking
1761303801821266700,-0.5295323133468628,0.3624019622802734,0.9338890314102172,-0.3141281902790069,0.0613901503384113,0.0816244632005691,walking
1761303801831403500,-0.4001310765743255,0.3675508499145508,0.8852300047874451,-0.3184041380882263,0.0767376869916915,0.10117157548666,walking
1761303801841540400,-0.2306040227413177,0.4443988800048828,0.7637107968330383,-0.3318427801132202,0.0749051421880722,0.1030041202902793,walking
1761303801851677200,-0.0296071171760559,0.5855731964111328,0.5888930559158325,-0.3428380191326141,0.0669641271233558,0.095063105225563,walking
1761303801861813800,0.2144492268562317,0.7789983749389648,0.5042852759361267,-0.3526115715503692,0.0650552362203598,0.0895654782652854,walking
1761303801871950600,0.3603906631469726,0.850285530090332,0.463438481092453,-0.3471139669418335,0.0589467622339725,0.0859003961086273,walking
1761303801882087400,0.5225510001182556,0.7997703552246094,0.4402355551719665,-0.3391729295253753,0.0497840531170368,0.0877329409122467,walking
1761303801892224300,0.6149551272392273,0.6588401794433594,0.4290791153907776,-0.3147390484809875,0.0461189672350883,0.0889546349644661,walking
1761303801902361000,0.6576170325279236,0.4563264846801758,0.449858158826828,-0.282364159822464,0.0387887991964817,0.0828461572527885,walking
1761303801912498000,0.6754617094993591,0.2305116653442382,0.399780809879303,-0.2506000995635986,0.0259610079228878,0.0675749778747558,walking
1761303801922634800,0.5758417844772339,0.0745210647583007,0.3524785339832306,-0.2249445021152496,0.0088572856038808,0.048027865588665,walking
1761303801932771600,0.34272301197052,-0.1933784484863281,0.2234956920146942,-0.2090624719858169,-0.0253501608967781,0.0248156692832708,walking
1761303801942908400,0.0426943898200988,-0.4367427825927734,0.1573926359415054,-0.1827960461378097,-0.0650552362203598,0.0077119464986026,walking
1761303801953045200,-0.2677779793739319,-0.650813102722168,0.1206978559494018,-0.1565296053886413,-0.1243074163794517,0.0009926267666742,walking
1761303801963182000,-0.4837356209754944,-0.6995372772216797,0.1279882788658142,-0.1265980899333953,-0.1768402755260467,-0.0045049986802041,walking
1761303801973318700,-0.6302294731140137,-0.6453933715820312,0.1349405199289322,-0.1082726791501045,-0.2177670449018478,-0.0008399150101467,walking
1761303801983455500,-0.6019353866577148,-0.5244846343994141,0.1730195730924606,-0.0856713280081749,-0.2580829560756683,-0.0014507622690871,walking
1761303801993592300,-0.530424952507019,-0.3847684860229492,0.217491403222084,-0.0691784545779228,-0.270910769701004,-0.0045049986802041,walking
1761303802003729200,-0.4510797262191772,-0.2597532272338867,0.292636513710022,-0.0484096445143222,-0.2825168669223785,-0.0130568603053689,walking
1761303802013866000,-0.442543089389801,-0.1231508255004882,0.3695815801620483,-0.0288625322282314,-0.2916795611381531,-0.0234412644058465,walking
1761303802024002800,-0.5457228422164917,-0.0418310165405273,0.4287565350532532,-0.0135913519188761,-0.2953446507453918,-0.028938889503479,walking
1761303802034139600,-0.6629666686058044,0.0130233764648437,0.4096119999885559,-0.0074828788638114,-0.3026748299598694,-0.028938889503479,walking
1761303802044276500,-0.7421360015869141,0.077310562133789,0.3513058125972748,-0.0172564350068569,-0.3002314269542694,-0.0246629584580659,walking
1761303802054413000,-0.7926326990127563,0.1032257080078125,0.3110436797142029,-0.0294733811169862,-0.3038965165615082,-0.0228304155170917,walking
1761303802064550000,-0.7453474998474121,0.0908651351928711,0.2621515393257141,-0.0447445623576641,-0.2977880239486694,-0.0203870274126529,walking
1761303802074686700,-0.7343235015869141,0.0904836654663086,0.2667470574378967,-0.0600157417356967,-0.2922904193401336,-0.0173327904194593,walking
1761303802084823600,-0.7169194221496582,0.0423793792724609,0.2944545149803161,-0.066735066473484,-0.2782409191131592,-0.0100026242434978,walking
1761303802094960400,-0.6641358733177185,-0.0342569351196289,0.2763850688934326,-0.0930014923214912,-0.2599155008792877,-0.0063375402241945,walking
1761303802105097200,-0.6312515139579773,-0.14410400390625,0.2063867151737213,-0.1088835224509239,-0.2171562016010284,-0.0002290677221026,walking
1761303802115234000,-0.5875024795532227,-0.23211669921875,0.549589991569519,-0.1101052165031433,-0.2183778882026672,0.009544488042593,walking
1761303802125371000,-0.5905364155769348,-0.3413400650024414,0.2016814798116684,-0.1595838516950607,-0.2275405973196029,0.022372281178832,walking
1761303802135507700,-0.646562397480011,-0.330841064453125,-0.2641748785972595,-0.1779092699289322,-0.2305948436260223,0.026648212224245,walking
1761303802145644300,-0.4671487510204315,-0.4277410507202148,0.0420116707682609,-0.1601946949958801,-0.2556395828723907,0.0376434624195098,walking
1761303802155781000,-0.4142240881919861,-0.5863609313964844,-0.016722422093153,-0.173633337020874,-0.2843494117259979,0.0559688806533813,walking
1761303802165918000,-0.4342103004455566,-0.6513547897338867,0.0011677294969558,-0.1730224788188934,-0.2806843221187591,0.0669641271233558,walking
1761303802176054800,-0.2563435435295105,-0.6206064224243164,0.1448606550693512,-0.1809635013341903,-0.2886253297328949,0.0706292167305946,walking
1761303802186191600,-0.1722869873046875,-0.5301742553710938,0.06666299700737,-0.1992889195680618,-0.2837385535240173,0.0724617540836334,walking
1761303802196328400,-0.0853751301765441,-0.4327898025512695,-0.0013483390212059,-0.218836024403572,-0.2782409191131592,0.065131589770317,walking
1761303802206465300,0.0047420859336853,-0.364328384399414,-0.1356655210256576,-0.2151709496974945,-0.2794626355171203,0.0541363395750522,walking
1761303802216602000,0.0850829482078552,-0.3151264190673828,-0.1838178783655166,-0.1931804418563842,-0.2867927849292755,0.0535254925489425,walking
1761303802226739000,0.0681192874908447,-0.3447589874267578,-0.2125943303108215,-0.1687465608119964,-0.3020639717578888,0.0687966719269752,walking
1761303802236875800,0.014160931110382,-0.3431978225708008,-0.2345079481601715,-0.1498102843761444,-0.3197785317897796,0.0804027691483497,walking
1761303802247012600,-0.0744948387145996,-0.222146987915039,-0.295352578163147,-0.1351499557495117,-0.3399364948272705,0.0938414111733436,walking
1761303802257149200,-0.1589722335338592,-0.1540565490722656,-0.347554862499237,-0.1253764033317566,-0.353985995054245,0.1005607321858406,walking
1761303802267286000,-0.1968101859092712,-0.1012506484985351,-0.311474472284317,-0.1235438585281372,-0.3692571818828583,0.095063105225563,walking
1761303802277422800,-0.2123974561691284,-0.0587730407714843,-0.2209208309650421,-0.1156028434634208,-0.3888042867183685,0.0901763290166854,walking
1761303802287559700,-0.3019477725028991,-0.0618085861206054,-0.1806749701499939,-0.1094943732023239,-0.3918585181236267,0.0785702317953109,walking
1761303802297696500,-0.2664858102798462,-0.0177993774414062,-0.1423118412494659,-0.0984991192817688,-0.400410383939743,0.0669641271233558,walking
1761303802307833300,-0.2778746783733368,0.0560178756713867,-0.1344266235828399,-0.0905581042170524,-0.3973561525344848,0.0584122687578201,walking
1761303802317970200,-0.2957287132740021,0.0932369232177734,-0.1225946396589279,-0.072843536734581,-0.3955236077308655,0.0541363395750522,walking
1761303802328107000,-0.3225113153457641,0.0874338150024414,-0.126613050699234,-0.0636808276176452,-0.3845283389091491,0.0523037947714328,walking
1761303802338243600,-0.3489603102207184,0.0487556457519531,-0.1129900589585304,-0.0520747303962707,-0.3784198760986328,0.0535254925489425,walking
1761303802348380400,-0.3987430334091186,0.0389642715454101,-0.0912420377135276,-0.0386360883712768,-0.374754786491394,0.0559688806533813,walking
1761303802358517200,-0.4336864948272705,-0.0130376815795898,-0.1143571510910987,-0.036192700266838,-0.3735330998897552,0.0571905747056007,walking
1761303802368654000,-0.4283724427223205,-0.0288410186767578,-0.1816087812185287,-0.0337493121623992,-0.3692571818828583,0.0608556568622589,walking
1761303802378791000,-0.4287896156311035,-0.0066471099853515,-0.2244204878807068,-0.0355818532407283,-0.3625378608703613,0.0706292167305946,walking
1761303802388927700,-0.4116250574588775,-0.0271263122558593,-0.2799605131149292,-0.0270299911499023,-0.3387148082256317,0.0840678513050079,walking
1761303802399064600,-0.382398396730423,-0.0989751815795898,-0.176896795630455,-0.0038177953101694,-0.3423798978328705,0.1023932695388794,walking
1761303802409201400,-0.3813798427581787,-0.141270637512207,-0.1871111392974853,0.0108425384387373,-0.3411581814289093,0.1213295385241508,walking
1761303802419338200,-0.4002470970153808,-0.1168689727783203,-0.3097020983695984,0.0157293174415826,-0.3344388604164123,0.1323247849941253,walking
1761303802429474800,-0.3302622139453888,-0.0763378143310546,-0.3722738027572632,0.0303896516561508,-0.3374931216239929,0.1420983374118805,walking
1761303802439611600,-0.2312622666358947,-0.0552921295166015,-0.4273180067539215,0.0487150698900222,-0.3313846290111542,0.1469851285219192,walking
1761303802449748500,-0.1889577507972717,-0.1216278076171875,-0.4612121880054474,0.0627645552158355,-0.3301629424095154,0.1567586809396743,walking
1761303802459885300,-0.2311343550682068,-0.0949220657348632,-0.5402586460113525,0.0755923464894294,-0.3405473530292511,0.171419009566307,walking
1761303802470022100,-0.2666176855564117,-0.0285320281982421,-0.6161004304885864,0.0933069214224815,-0.3564293682575226,0.1830251067876815,walking
1761303802480159000,-0.3046125769615173,0.0580387115478515,-0.6439168453216553,0.1134648770093917,-0.3588727712631225,0.1915769726037979,walking
1761303802490295800,-0.3167621493339538,0.1126708984375,-0.6342339515686035,0.1299577504396438,-0.3674246370792389,0.1995179802179336,walking
1761303802500432600,-0.3261360228061676,0.1711530685424804,-0.6176883578300476,0.1531699448823928,-0.3674246370792389,0.1982962936162948,walking
1761303802510569500,-0.3045821189880371,0.2758197784423828,-0.4691262543201446,0.1812689304351806,-0.3698680102825165,0.1976854503154754,walking
1761303802520706300,-0.4215004444122314,0.5271158218383789,-0.1432992815971374,0.2344126403331756,-0.4065188467502594,0.1909661293029785,walking
1761303802530843000,-0.5973013639450073,1.007176399230957,0.1860858500003814,0.2533488869667053,-0.4089622497558594,0.1640888452529907,walking
1761303802540979700,-0.6094326376914978,1.3895549774169922,-0.0309007614850997,0.2142546772956848,-0.3643703758716583,0.1335464864969253,walking
1761303802551116500,-0.3132320642471313,1.678266525268555,-0.2754718065261841,0.1635543555021286,-0.3161134421825409,0.1121668294072151,walking
1761303802561253400,0.094215989112854,1.9762449264526367,-0.0536135733127594,0.1513374149799347,-0.2812951505184173,0.1036149635910987,walking
1761303802571390200,0.1650537848472595,2.094217300415039,0.3445390462875366,0.1385096162557602,-0.2470877170562744,0.1054475083947181,walking
1761303802581527000,0.1659152507781982,2.0827579498291016,0.6193256974220276,0.1122431829571724,-0.2037175595760345,0.0865112394094467,walking
1761303802591663900,0.2018576264381408,1.958683967590332,0.7462889552116394,0.0768140405416488,-0.1658450365066528,0.0455844774842262,walking
1761303802601800700,0.2372650504112243,1.648177146911621,0.7219794392585754,0.0273354146629571,-0.1267508119344711,0.0016034740256145,walking
1761303802611937500,0.2114710211753845,1.0347785949707031,0.5809502601623535,-0.0154238929972052,-0.0968192890286445,-0.0326039716601371,walking
1761303802622074400,0.1776639819145202,0.4251136779785156,0.5301780700683594,-0.0453554093837738,-0.0699420124292373,-0.0478751547634601,walking
1761303802632211000,0.0073699951171875,-0.1567344665527343,0.5238460898399353,-0.0551289655268192,-0.0607793033123016,-0.0435992218554019,walking
1761303802642347800,-0.2625548243522644,-0.7250146865844727,0.5406847596168518,-0.0624591335654258,-0.062000997364521,-0.022219568490982,walking
1761303802652484600,-0.5532474517822266,-1.1675033569335938,0.5161741375923157,-0.0691784545779228,-0.0577250644564628,0.0009926267666742,walking
1761303802662621400,-0.7006398439407349,-1.4510202407836914,0.4596377611160278,-0.0807845517992973,-0.0717745497822761,0.0321458354592323,walking
1761303802672758300,-0.7534787654876709,-1.497091293334961,0.4050662815570831,-0.0868930220603942,-0.0766613334417343,0.0694075226783752,walking
1761303802682895000,-0.7622090578079224,-1.5092926025390625,0.3877358436584472,-0.0984991192817688,-0.0821589529514312,0.1072800531983375,walking
1761303802693032000,-0.7116976976394653,-1.4161138534545898,0.4686401486396789,-0.09605573117733,-0.0846023485064506,0.1359898746013641,walking
1761303802703168800,-0.6344358325004578,-1.234619140625,0.640479564666748,-0.0917797982692718,-0.0784938707947731,0.153704434633255,walking
1761303802713305600,-0.5417550206184387,-1.0415067672729492,0.7595723867416382,-0.089336410164833,-0.0742179453372955,0.1646996885538101,walking
1761303802723442200,-0.4570303857326507,-0.817744255065918,0.7947709560394287,-0.0887255668640136,-0.0644443854689598,0.1701973229646682,walking
1761303802733579000,-0.4210186600685119,-0.6851787567138672,0.8473427891731262,-0.0807845517992973,-0.0577250644564628,0.1775274872779846,walking
1761303802743715800,-0.3426685333251953,-0.5480766296386719,0.833251953125,-0.0765086188912391,-0.046729814261198,0.1830251067876815,walking
1761303802753852700,-0.2458406090736389,-0.3873472213745117,0.8174741864204407,-0.0691784545779228,-0.0387887991964817,0.1873010396957397,walking
1761303802763989500,-0.120169460773468,-0.2700052261352539,0.7927349209785461,-0.0636808276176452,-0.038177952170372,0.1830251067876815,walking
1761303802774126300,0.0605332255363464,-0.1840133666992187,0.7859283089637756,-0.0746760740876197,-0.023517619818449,0.1787491738796234,walking
1761303802794400000,0.4288032054901123,-0.2156839370727539,1.0424076318740845,-0.0917797982692718,0.0284043978899717,0.1543152928352356,walking
1761303802804536800,0.633338451385498,-0.2948942184448242,1.0714764595031738,-0.1382041871547699,-0.0070247435942292,0.1414874941110611,walking
1761303802814673400,0.5939446687698364,-0.3478631973266601,0.488090842962265,-0.1711899489164352,0.0051922015845775,0.1158319115638732,walking
1761303802824810200,0.7564082145690918,-0.5058612823486328,0.853835940361023,-0.1528645306825637,-0.0088572856038808,0.1042258143424987,walking
1761303802834947000,0.816009521484375,-0.7995662689208984,1.0456651449203491,-0.1675248593091964,-0.0455081202089786,0.10178242623806,walking
1761303802845084000,0.763325572013855,-0.9253387451171876,0.9078355431556702,-0.1663031727075576,-0.0681094676256179,0.1005607321858406,walking
1761303802855220700,0.8758420944213867,-1.0436220169067385,1.22861909866333,-0.1699682474136352,-0.0772721767425537,0.0975064933300018,walking
1761303802865357600,0.9243831634521484,-0.970585823059082,1.2527906894683838,-0.1901262104511261,-0.0699420124292373,0.0895654782652854,walking
1761303802875494400,0.982858180999756,-0.8045644760131836,1.2569862604141235,-0.2194468826055526,-0.0436755791306495,0.0846787020564079,walking
1761303802885631200,1.011373519897461,-0.6103448867797852,1.1418843269348145,-0.2402156889438629,-0.0247393138706684,0.0724617540836334,walking
1761303802895768000,1.00014066696167,-0.3115720748901367,1.022439956665039,-0.2377723008394241,-0.0155766047537326,0.0632990449666976,walking
1761303802905905000,0.8954694271087646,-0.0301904678344726,0.9932593703269958,-0.2231119573116302,-0.027793550863862,0.0663532838225364,walking
1761303802916041500,0.7176861763000488,0.1122245788574218,0.8718246221542358,-0.2163926362991333,-0.0393996499478817,0.0834570080041885,walking
1761303802926178300,0.6106257438659668,0.3094568252563476,0.759269118309021,-0.2273878902196884,-0.0485623553395271,0.0968956500291824,walking
1761303802936315100,0.6439367532730103,0.4777374267578125,0.6504223346710205,-0.2408265322446823,-0.046729814261198,0.1048366576433181,walking
1761303802946452000,0.5888302326202393,0.5071983337402344,0.6359508037567139,-0.2536543309688568,-0.0339020229876041,0.1048366576433181,walking
1761303802956588800,0.5535836219787598,0.4721879959106445,0.6765291690826416,-0.2738122940063476,-0.0088572856038808,0.0993390381336212,walking
1761303802966725600,0.4302713871002197,0.363351821899414,0.686830997467041,-0.2860292196273803,0.0161874517798423,0.0981173440814018,walking
1761303802976862500,0.2837094068527221,0.1856365203857422,0.66019606590271,-0.2945810854434967,0.0357345640659332,0.0956739485263824,walking
1761303802986999300,0.1000009775161743,-0.0131340026855468,0.6246288418769836,-0.2866400778293609,0.0546708293259143,0.0895654782652854,walking
1761303802997136100,-0.051701545715332,-0.2114372253417968,0.6311702132225037,-0.2689255177974701,0.0816244632005691,0.0859003961086273,walking
1761303803007273000,-0.2295349836349487,-0.4641923904418945,0.6621385812759399,-0.2365505993366241,0.1023932695388794,0.0895654782652854,walking
1761303803017409500,-0.3352338671684265,-0.6638698577880859,0.655535876750946,-0.2047865390777588,0.1060583516955375,0.0895654782652854,walking
1761303803027546400,-0.3698815107345581,-0.7483491897583008,0.5983186364173889,-0.1834068894386291,0.1225512325763702,0.0993390381336212,walking
1761303803037683200,-0.4075055122375488,-0.7799758911132812,0.4965783953666687,-0.1742441803216934,0.1378224194049835,0.1072800531983375,walking
1761303803047820000,-0.3926690816879272,-0.7326822280883789,0.4625933766365051,-0.166914016008377,0.1445417255163192,0.1097234413027763,walking
1761303803057956900,-0.2572580575942993,-0.5925941467285156,0.452060341835022,-0.1473668962717056,0.1488176584243774,0.0981173440814018,walking
1761303803068093700,-0.1223909854888916,-0.469858169555664,0.4516456723213196,-0.1369825005531311,0.1854684948921203,0.0785702317953109,walking
1761303803078230500,0.0760868787765502,-0.3667898178100586,0.516329288482666,-0.1278197914361953,0.2068481594324112,0.0614665038883686,walking
1761303803088367400,0.2658746242523193,-0.3310317993164062,0.6148301959037781,-0.1211004704236984,0.2154000103473663,0.0486387126147747,walking
1761303803098504000,0.3655059337615967,-0.2764043807983398,0.520056426525116,-0.1156028434634208,0.2251735776662826,0.0388651564717292,walking
1761303803108640800,0.4393808841705322,-0.1622762680053711,0.5017508268356323,-0.1149920001626014,0.2434989959001541,0.032756682485342,walking
1761303803118777600,0.43354332447052,-0.143895149230957,0.5106102824211121,-0.1046075895428657,0.2563267946243286,0.041308544576168,walking
1761303803128914400,0.4565714597702026,-0.0897655487060546,0.4433778524398803,-0.1003316640853881,0.2612135708332062,0.0400868505239486,walking
1761303803139051300,0.5997925996780396,-0.0335111618041992,0.3886960744857788,-0.0942231863737106,0.2728196680545807,0.032756682485342,walking
1761303803149188000,0.6200202703475952,-0.049570083618164,0.3534435629844665,-0.0905581042170524,0.285647451877594,-0.0057266931980848,walking
1761303803159325000,1.0234159231185913,-0.334329605102539,0.2995570302009582,-0.1009425073862075,0.3601708114147186,-0.1077381819486618,walking
1761303803169461800,0.719241738319397,-0.4602937698364258,0.4103574156761169,-0.0801737010478973,0.3546731770038605,-0.0625354871153831,walking
1761303803179598600,0.2847628593444824,0.07110595703125,0.3511619567871094,-0.0838387832045555,0.3412345647811889,-0.0417666807770729,walking
1761303803189735400,0.755927562713623,0.0589456558227539,0.1858691573143005,-0.09605573117733,0.3400128483772278,-0.0600920990109443,walking
1761303803199872000,0.5542804002761841,-0.1011924743652343,0.2173711061477661,-0.0930014923214912,0.3222982883453369,-0.0552053228020668,walking
1761303803210008800,0.4971747398376465,-0.2476844787597656,0.1807332038879394,-0.0807845517992973,0.3082487881183624,-0.0393232926726341,walking
1761303803220145700,0.3864176273345947,-0.3116493225097656,0.1545498967170715,-0.0777303129434585,0.2978644073009491,-0.0350473597645759,walking
1761303803230282500,0.4093896150588989,-0.3204660415649414,0.1367194652557373,-0.0697892978787422,0.2917559146881103,-0.0356582105159759,walking
1761303803240419300,0.3662612438201904,-0.3642587661743164,0.1557674407958984,-0.0594048947095871,0.2715979516506195,-0.0148894023150205,walking
1761303803250556200,0.224123477935791,-0.36956787109375,0.1396160125732422,-0.0557398125529289,0.2654894888401031,-0.0063375402241945,walking
1761303803260693000,0.2296758890151977,-0.3724927902221679,0.1348636746406555,-0.0392469353973865,0.2569376230239868,-0.0002290677221026,walking
1761303803270829800,0.1783608198165893,-0.3472127914428711,0.1364386081695556,-0.023364907130599,0.2569376230239868,0.0028251686599105,walking
1761303803280966700,0.150896668434143,-0.3765497207641601,0.1040828227996826,-0.0093154208734631,0.253272533416748,0.0083227939903736,walking
1761303803291103500,0.1757826805114746,-0.3749246597290039,0.0759373903274536,0.0029015245381742,0.2428881376981735,0.0064902519807219,walking
1761303803301240000,0.3113834857940674,-0.2864274978637695,0.0498557686805725,0.0193943995982408,0.2428881376981735,0.0016034740256145,walking
1761303803311377000,0.4247825145721435,-0.2773990631103515,0.0680583715438842,0.0364981219172477,0.2563267946243286,-0.0100026242434978,walking
1761303803321513700,0.4654356241226196,-0.2336149215698242,0.023726999759674,0.0529909990727901,0.2758738994598388,-0.0301605835556983,walking
1761303803331650600,0.440115213394165,-0.2238397598266601,-0.0384867191314697,0.0792574286460876,0.2734304964542389,-0.0368799045681953,walking
1761303803341787400,0.3409879207611084,-0.1486597061157226,-0.0503382682800293,0.1024696305394172,0.2734304964542389,-0.0484860017895698,walking
1761303803351924200,0.3362749814987182,-0.1292028427124023,-0.0220560431480407,0.1262926757335662,0.276484727859497,-0.0582595579326152,walking
1761303803362061000,0.2831674814224243,-0.1385717391967773,0.0095816254615783,0.1421747058629989,0.2819823622703552,-0.0680331140756607,walking
1761303803372198000,0.2406961917877197,-0.0937948226928711,-0.0590643286705017,0.157445877790451,0.283204048871994,-0.0716981962323188,walking
1761303803382334700,0.2678756713867187,-0.0546903610229492,-0.120126724243164,0.1751604527235031,0.283204048871994,-0.0790283605456352,walking
1761303803392471600,0.3235707283020019,-0.0211725234985351,-0.1193972826004028,0.1947075575590133,0.2825932204723358,-0.0869693756103515,walking
1761303803402608400,0.3444526195526123,-0.0403823852539062,-0.0759415030479431,0.2215848416090011,0.2752630412578583,-0.1028514057397842,walking
1761303803412745000,0.3595750331878662,-0.0478677749633789,-0.0307440161705017,0.2466295808553695,0.2740413546562195,-0.1205659806728363,walking
1761303803422881800,0.3659869432449341,-0.1048078536987304,-0.0489019751548767,0.2564031481742859,0.2752630412578583,-0.1309503763914108,walking
1761303803433018600,0.3045247793197632,-0.1632900238037109,-0.1708641052246093,0.2735068500041961,0.2636569440364837,-0.1376696974039077,walking
1761303803443155500,0.2684602737426758,-0.1832723617553711,-0.2656300663948059,0.28694549202919,0.2404447495937347,-0.1486649513244629,walking
1761303803453292300,0.3068249225616455,-0.2077360153198242,-0.3339007794857025,0.2991624474525451,0.2276169657707214,-0.1590493619441986,walking
1761303803463429000,0.2362539768218994,-0.3071746826171875,-0.3444671928882599,0.3217637836933136,0.2111240774393081,-0.1608818918466568,walking
1761303803473566000,0.2834318876266479,-0.3133211135864258,-0.3523330688476562,0.3449759781360626,0.1903552711009979,-0.1755422353744506,walking
1761303803483702800,0.3846504688262939,-0.2746772766113281,-0.3252759277820587,0.3620797097682953,0.1775274872779846,-0.1840940862894058,walking
1761303803493839600,0.4140563011169433,-0.321476936340332,-0.2888499498367309,0.3926220834255218,0.1964637488126754,-0.1889808773994445,walking
1761303803503976200,0.4113532304763794,-0.3769617080688476,0.1379734575748443,0.4665345847606659,0.1885227411985397,-0.1798181682825088,walking
1761303803514113000,0.2986922264099121,-0.3275165557861328,-0.1583192646503448,0.4573718905448913,0.1408766508102417,-0.1651578247547149,walking
1761303803524249900,0.1933058500289917,-0.0316886901855468,-0.9361151456832886,0.4903576374053955,0.1384332627058029,-0.1730988472700119,walking
1761303803534386700,0.2979481220245361,0.2099418640136718,-0.2718396782875061,0.5825955867767334,0.0889546349644661,-0.1627144366502761,walking
1761303803544523500,0.1640505790710449,0.3772964477539062,-0.0008921772241592,0.6394043564796448,0.0326803289353847,-0.1504974961280822,walking
1761303803554660400,-0.0283125638961792,0.8740758895874023,0.0824234634637832,0.6882721781730652,-0.0045813545584678,-0.1566059589385986,walking
1761303803564797200,0.0557167530059814,1.3769426345825195,0.1096726655960083,0.6565080881118774,-0.0119115216657519,-0.181650698184967,walking
1761303803574934000,0.1534513235092163,1.8362398147583008,-0.4071043133735657,0.561826765537262,-0.0015271181473508,-0.2152473032474517,walking
1761303803585070800,0.1953191757202148,2.136899948120117,-0.4793660640716553,0.4665345847606659,0.0143549107015132,-0.2573957741260528,walking
1761303803595207700,0.2231695652008056,2.264824867248535,-0.2103046178817749,0.3907895386219024,0.0186308417469263,-0.2854947447776794,walking
1761303803605344300,0.1365718245506286,2.067819595336914,0.1922489702701568,0.3480302393436432,0.032069481909275,-0.287938117980957,walking
1761303803615481000,-0.0245560407638549,1.5037784576416016,0.5672904849052429,0.3211529552936554,0.0308477859944105,-0.2806079685688019,walking
1761303803625618000,-0.1035293340682983,0.9868431091308594,0.7314679026603699,0.3003841340541839,0.0436755791306495,-0.2622825503349304,walking
1761303803635754800,-0.2463246583938598,0.4358968734741211,0.6306865215301514,0.2814478874206543,0.0430647321045398,-0.2189123928546905,walking
1761303803645891600,-0.3861027956008911,-0.1012487411499023,0.4417182505130768,0.2564031481742859,0.0418430380523204,-0.1737096905708313,walking
1761303803656028400,-0.4050457179546356,-0.5435848236083984,0.3110405206680298,0.2124221324920654,0.0308477859944105,-0.1364480108022689,walking
1761303803666165200,-0.3495609760284424,-0.9059066772460938,0.2486594021320343,0.1501157134771347,0.0149657577276229,-0.1156791970133781,walking
1761303803676302000,-0.2830910682678222,-1.1002178192138672,0.2295511662960052,0.0780357345938682,-0.0015271181473508,-0.1071273386478424,walking
1761303803686439000,-0.280507743358612,-1.114959716796875,0.2004921734333038,0.0010689827613532,-0.0076355906203389,-0.0906344652175903,walking
1761303803696575500,-0.2720088362693786,-0.9888429641723632,0.1488612294197082,-0.0838387832045555,-0.023517619818449,-0.0778066664934158,walking
1761303803706712300,-0.2400329709053039,-0.8295478820800781,0.0312834084033966,-0.1730224788188934,-0.0369562581181526,-0.0497076958417892,walking
1761303803716849200,-0.5849113464355469,-0.997600555419922,0.0629095584154129,-0.2646495699882507,-0.08582404255867,-0.0063375402241945,walking
1761303803726986000,-0.2942714095115661,-0.7282829284667969,-0.2358044683933258,-0.4008685052394867,-0.1939440071582794,0.0009926267666742,walking
1761303803737122800,-0.0497987866401672,-0.2349405288696289,-0.6265385746955872,-0.5456393361091614,-0.2458660155534744,0.0254265163093805,walking
1761303803747259600,0.1484492421150207,-0.2098474502563476,-0.5940223932266235,-0.6861341595649719,-0.1511846929788589,0.1219403818249702,walking
1761303803757396500,-1.5670552253723145,-1.4415922164916992,0.3501685857772827,-0.6934643387794495,0.1042258143424987,0.2691545784473419,walking
1761303803767533300,0.2383289337158203,-1.352020263671875,1.4036171436309814,-0.6897992491722107,-0.0510057471692562,0.2074590027332306,walking
1761303803777670100,0.7793828845024109,0.0920066833496093,-0.1534114927053451,-0.6519267559051514,0.1085017472505569,0.2227301746606826,walking
1761303803787807000,0.0591500997543334,-0.2911739349365234,1.03468656539917,-0.6781931519508362,0.118886150419712,0.2618243992328644,walking
1761303803808080400,0.1333156824111938,-1.1697273254394531,-0.807767391204834,-0.9726215600967408,0.6124507188796997,0.255715936422348,walking
1761303803818217200,-0.9830332398414612,-0.4010095596313476,0.2076783776283264,-1.167481780052185,0.761497437953949,0.2874799966812134,walking
1761303803828354000,-0.5937319397926331,-0.987436294555664,-1.4943915605545044,-1.4136532545089722,0.683309018611908,0.285647451877594,walking
1761303803838491000,0.3035315275192261,-0.9645118713378906,-2.423004627227783,-1.7075471878051758,0.6374954581260681,0.1940203607082367,walking
1761303803848627700,0.7412633895874023,-0.7408723831176758,-2.8012609481811523,-2.0331287384033203,0.6845307350158691,0.0535254925489425,walking
1761303803858764500,0.6526964902877808,-0.5825386047363281,-2.6891908645629883,-2.336108922958374,0.6497124433517456,-0.0588704049587249,walking
1761303803868901400,0.3130179643630981,-0.7305269241333008,-2.680394172668457,-2.6262614727020264,0.5580853223800659,-0.1236202120780944,walking
1761303803879038200,-0.2985908389091491,-1.070429801940918,-2.561022520065308,-2.92924165725708,0.526321291923523,-0.0594812519848346,walking
1761303803889175000,-1.1668636798858645,-1.0891637802124023,-2.4405517578125,-3.13204288482666,0.5159368515014648,-0.1169008910655975,walking
1761303803899311900,-0.4290589690208435,-1.5436506271362305,-2.14732027053833,-3.3036911487579346,0.4249206185340881,-0.188370019197464,walking
1761303803909448400,-0.2341197729110717,-1.7177791595458984,-1.686160922050476,-3.4484617710113525,0.3907131850719452,-0.2464005202054977,walking
1761303803919585300,-0.5480417013168335,-1.6377034187316897,-1.1640033721923828,-3.5608577728271484,0.4114819765090942,-0.2567849159240722,walking
1761303803929722000,-0.4224908649921417,-1.4362993240356443,-1.2815356254577637,-3.767324209213257,0.4463002681732178,-0.3270323574542999,walking
1761303803939859000,-0.4589344263076782,-1.227835178375244,-2.0457797050476074,-4.05747652053833,0.4774535000324249,-0.3875062167644501,walking
1761303803949995800,-0.7222416400909424,-1.09733247756958,-2.453014850616455,-4.351370334625244,0.5348731279373169,-0.4266004562377929,walking
1761303803960132600,-0.3844819068908691,-1.2099542617797852,-2.815800428390503,-4.720932960510254,0.5122717618942261,-0.4889068603515625,walking
1761303803970269400,-0.6219067573547363,-1.3243494033813477,-3.547058582305908,-5.041017055511475,0.493946373462677,-0.50112384557724,walking
1761303803980406300,-0.8818174600601196,-1.6183619499206543,-3.708665370941162,-5.3617119789123535,0.4841728210449219,-0.4785224795341491,walking
1761303803990543000,-1.3838887214660645,-2.1736793518066406,-3.6797356605529785,-5.645755767822266,0.5232670307159424,-0.3911713063716888,walking
1761303804000679700,-1.4806458950042725,-2.8731980323791504,-3.516888380050659,-5.877877712249756,0.5593070387840271,-0.2610608339309692,walking
1761303804010816500,-2.132842540740967,-3.43560004234314,-2.804741382598877,-5.965229034423828,0.5898494124412537,-0.0246629584580659,walking
1761303804020953300,-2.810211420059204,-4.149459838867188,-1.8732786178588867,-5.976223945617676,0.5061632990837097,0.1048366576433181,walking
1761303804031090200,-1.6267316341400146,-3.616898775100708,-0.7785091400146484,-5.397751808166504,0.4829511046409607,0.0578014217317104,walking
1761303804041227000,-1.4017889499664309,-2.405442953109741,4.520482063293457,-4.570053577423096,-0.3381039500236511,-0.0258846525102853,walking
1761303804051363800,-0.17474465072155,-1.0698518753051758,3.886312484741211,-3.706850290298462,-1.2000094652175903,-0.3392492830753326,walking
1761303804061500700,1.768173098564148,0.1958746910095214,2.242360115051269,-3.06973648071289,-1.9495190382003784,-0.7106444239616394,walking
1761303804071637500,2.3591654300689697,0.5345110893249512,0.7923307418823242,-2.657414674758911,-2.5298240184783936,-1.0478321313858032,walking
1761303804081774300,2.510415554046631,0.7246685028076172,0.9136419296264648,-2.4448397159576416,-2.8145551681518555,-1.2775870561599731,walking
1761303804091911000,1.8241541385650637,0.6109271049499512,1.8044185638427732,-2.3666512966156006,-2.7198736667633057,-1.3374500274658203,walking
1761303804102047700,1.3459959030151367,-0.0004849433898925,2.379086494445801,-2.2554771900177,-2.229897975921631,-1.2103937864303589,walking
1761303804112184600,0.3610081672668457,-0.1399660110473632,3.751894950866699,-2.205387592315674,-1.822462797164917,-0.8786274194717407,walking
1761303804122321400,-0.4733574390411377,-0.1684134006500244,4.334516525268555,-2.2365407943725586,-1.2042853832244873,-0.5573217868804932,walking
1761303804132458200,-0.6061913967132568,-0.1325533390045166,4.656523704528809,-2.3868093490600586,-0.1383569091558456,-0.3038201630115509,walking
1761303804142595000,-0.975584089756012,-0.4694526195526123,4.057773590087891,-2.6152660846710205,0.734009325504303,-0.1114032715559005,walking
1761303804152732000,-1.0297625064849854,-0.9386391639709472,3.42022705078125,-2.7740864753723145,1.0327136516571045,0.0352000743150711,walking
1761303804162868700,-0.4748358726501465,-0.9909946918487548,3.2148971557617188,-2.7362139225006104,0.9575794339179992,0.0785702317953109,walking
1761303804173005600,0.0690906047821044,-0.4695980548858642,3.4979705810546875,-2.497372627258301,0.9343672394752502,-0.0356582105159759,walking
1761303804183142400,0.4757018685340881,0.2811987400054931,4.09622859954834,-2.1088738441467285,0.8946621417999268,-0.2415137290954589,walking
1761303804193279000,0.9429795145988464,0.4636011123657226,4.227007865905762,-1.6318020820617676,0.6570425629615784,-0.4540885686874389,walking
1761303804203415800,1.087374210357666,-0.1137609481811523,4.5362653732299805,-1.0214893817901611,0.1860793530941009,-0.6849888563156128,walking
1761303804213552600,1.6517994403839111,-0.267423152923584,5.310824394226074,-0.2396048307418823,-0.137746050953865,-0.9103915095329284,walking
1761303804223689500,1.4448435306549072,-0.3537089824676513,6.377326965332031,0.5581616759300232,-0.1536280810832977,-1.1229662895202637,walking
1761303804233826300,0.948286473751068,-0.7893812656402588,6.098700523376465,1.2521605491638184,0.0339020229876041,-1.2641483545303345,walking
1761303804243963100,-0.0823636054992675,-0.5292952060699463,5.3315019607543945,1.5325393676757812,-0.0473406612873077,-1.2940798997879028,walking
1761303804254100000,-0.6391608119010925,-1.8360145092010496,2.0689868927001958,1.2039035558700562,-0.4376720488071441,-1.0576056241989136,walking
1761303804264236800,-2.034850597381592,-2.6681039333343506,0.7132072448730469,0.8055548071861267,-0.2214321345090866,-0.6434512138366699,walking
1761303804274373600,-2.486745357513428,-2.333346366882324,1.9896306991577148,0.5447230339050293,0.4847836494445801,-0.2641150951385498,walking
1761303804284510500,-2.0083627700805664,-1.8689044713974,2.6499385833740234,0.2710634768009186,1.030270218849182,-0.0411558337509632,walking
1761303804294647300,-1.2310335636138916,-1.655303955078125,1.802774429321289,-0.0093154208734631,1.2752200365066528,0.0523037947714328,walking
1761303804304784000,-0.6086779832839966,-1.2383999824523926,0.953516960144043,-0.1931804418563842,1.372344732284546,0.056579727679491,walking
1761303804314920700,-0.3430491089820862,-0.6362419128417969,0.6037435531616211,-0.2451024651527404,1.2373474836349487,0.0071010994724929,walking
1761303804325057500,-0.0782496780157089,-0.1302998065948486,0.8059844970703125,-0.0813953951001167,0.9716289043426514,-0.1199551299214363,walking
1761303804335194400,0.2347198724746704,0.4100205898284912,1.630476951599121,0.2680092453956604,0.5922927856445312,-0.3380275964736938,walking
1761303804345331200,0.7097173929214478,0.5015623569488525,1.6067476272583008,0.7010999321937561,0.055281676352024,-0.6324560046195984,walking
1761303804355468000,0.8774290680885315,0.2456090450286865,1.2447280883789062,1.0866209268569946,-0.5030327439308167,-0.9391012787818908,walking
1761303804365604900,0.6664891242980957,-0.4011070728302002,0.8231725692749023,1.3083584308624268,-0.8732061386108398,-1.1522870063781738,walking
1761303804375741700,0.1562746614217758,-1.2278735637664795,0.4448041915893554,1.3590587377548218,-0.9593356251716614,-1.2317734956741333,walking
1761303804385878500,-0.2332014590501785,-1.74578857421875,0.2406167984008789,1.272929310798645,-0.8115105628967285,-1.1871052980422974,walking
1761303804396015400,-0.8001150488853455,-2.1623730659484863,0.0350332260131835,1.052947998046875,-0.5769452452659607,-1.0111812353134155,walking
1761303804406152000,-1.4260200262069702,-2.5080056190490723,-0.4273881912231445,0.7230904698371887,-0.434617817401886,-0.7289698719978333,walking
1761303804416288800,-1.8183735609054563,-2.565099239349365,-0.8103961944580078,0.3877353072166443,-0.2049392610788345,-0.4033882617950439,walking
1761303804426425600,-1.925748944282532,-2.312297821044922,-0.6775417327880859,0.1201841980218887,0.0975064933300018,-0.1498866528272628,walking
1761303804436562400,-1.2057099342346191,-1.9183192253112795,-0.3722095489501953,-0.0410794764757156,0.2935884594917297,-0.0662005692720413,walking
1761303804446699300,-0.1278354376554489,-1.676254391670227,-0.2857484817504883,-0.0618482865393161,0.3949891030788421,-0.1071273386478424,walking
1761303804456836000,0.4904481768608093,-1.4026739597320557,0.0347414016723632,0.0029015245381742,0.3479538559913635,-0.2054737508296966,walking
1761303804466973000,0.788849949836731,-1.1262664794921875,-0.0064897537231445,0.1189625039696693,0.2685437202453613,-0.3221455812454223,walking
1761303804477109800,0.7371224164962769,-0.9686229228973388,0.0102453231811523,0.259457379579544,0.2477749139070511,-0.4186594486236572,walking
1761303804487246600,0.5348039865493774,-1.0978024005889893,-0.1233081817626953,0.3883461356163025,0.2392230629920959,-0.4944044947624206,walking
1761303804497383200,0.340877890586853,-1.3233070373535156,-0.3077354431152344,0.4805840849876404,0.231282040476799,-0.5292227864265442,walking
1761303804507520000,-0.0337012484669685,-1.507779836654663,-0.4367351531982422,0.5367820262908936,0.2099023908376693,-0.5231143236160278,walking
1761303804517656800,-0.5741336941719055,-1.56965970993042,-0.4591178894042969,0.561826765537262,0.149428516626358,-0.4870743453502655,walking
1761303804527793700,-0.9056342840194702,-1.6199073791503906,-0.5689592361450195,0.5166240930557251,0.1023932695388794,-0.4052208065986633,walking
